{
  "participant_info": {
    "total_trials": 10,
    "valid_trials": 8,
    "high_quality_trials": 0,
    "mean_quality_score": 0.7859435234232615,
    "pixels_per_mm": 4.906542056074767
  },
  "trial_results": [
    {
      "trial_number": 1,
      "metrics": {
        "reaction_time": 1072.0,
        "movement_time": 2018.0,
        "peak_velocity": 522.9052764316548,
        "time_to_peak_velocity": 1089.0,
        "path_length": 63.94499707907666,
        "directness_ratio": 0.4199676201488591,
        "movement_units": 3,
        "corrective_movements": 10,
        "mean_velocity": 20.965990597765618,
        "movement_variability": 13.584476126958645,
        "velocity_peaks": [
          62,
          78,
          94
        ],
        "velocities": [
          0.0,
          0.0,
          0.0,
          0.0,
          0.0,
          0.0,
          0.0,
          0.0,
          0.0,
          0.0,
          0.0,
          0.0,
          0.0,
          0.0,
          0.0,
          0.0,
          0.0,
          0.0,
          0.0,
          0.0,
          0.0,
          0.0,
          0.0,
          0.0,
          0.0,
          0.0,
          0.0,
          0.0,
          0.0,
          0.0,
          0.0,
          0.0,
          0.0,
          0.0,
          0.0,
          0.0,
          0.0,
          0.0,
          0.0,
          0.0,
          0.0,
          0.0,
          0.0,
          0.0,
          0.0,
          0.0,
          0.0,
          0.0,
          0.0,
          0.0,
          0.0,
          0.0,
          0.0,
          0.0,
          0.0,
          0.0,
          0.0,
          0.0,
          0.0,
          0.0,
          0.0,
          254.77723664295178,
          522.9052764316548,
          281.4788429344543,
          13.350803145751247,
          0.0,
          0.0,
          0.0,
          0.0,
          0.0,
          0.0,
          6.0294117647058805,
          34.40257352941177,
          82.59191176470588,
          159.21875,
          245.22025584123952,
          258.503813222312,
          279.72135970047964,
          297.36655207797213,
          171.0952876294907,
          52.97273007093768,
          26.125095508088933,
          8.318903308077,
          0.0,
          0.0,
          0.0,
          0.0,
          0.0,
          0.0,
          0.0,
          23.823442732130697,
          78.05750130076754,
          119.56243492897953,
          152.0990270854228,
          190.87766195100934,
          185.73156075127704,
          134.3805678870501,
          87.5392933632656,
          52.889486452647894,
          27.902973055764324,
          12.884996898797937,
          3.088235294118216,
          0.0,
          3.088235294117555,
          9.117647058823282,
          11.911764705882176,
          8.823529411764726,
          2.941176470588277,
          0.0,
          3.1249999999993343,
          6.249999999998669,
          6.213235294116993,
          9.45772058823522,
          9.650735294117464,
          3.2812499999999023,
          0.0,
          0.0,
          0.0,
          0.0,
          0.0,
          0.0,
          0.0,
          0.0,
          0.0,
          0.0,
          0.0,
          0.0,
          0.0,
          0.0,
          0.0,
          0.0,
          0.0,
          0.0,
          0.0,
          0.0,
          0.0,
          0.0,
          0.0,
          0.0,
          0.0,
          0.0,
          0.0,
          0.0,
          0.0,
          0.0,
          0.0,
          0.0,
          0.0,
          0.0,
          0.0,
          0.0,
          0.0,
          0.0,
          0.0,
          0.0,
          0.0,
          0.0,
          0.0,
          0.0,
          0.0,
          0.0,
          0.0,
          0.0,
          0.0,
          0.0,
          0.0,
          0.0,
          0.0,
          0.0,
          0.0,
          0.0,
          0.0,
          0.0,
          0.0,
          0.0,
          0.0,
          0.0,
          0.0,
          0.0,
          0.0,
          0.0,
          0.0,
          0.0
        ],
        "accelerations": [
          0.0,
          0.0,
          0.0,
          0.0,
          0.0,
          0.0,
          0.0,
          0.0,
          0.0,
          0.0,
          0.0,
          0.0,
          0.0,
          0.0,
          0.0,
          0.0,
          0.0,
          0.0,
          0.0,
          0.0,
          0.0,
          0.0,
          0.0,
          0.0,
          0.0,
          0.0,
          0.0,
          0.0,
          0.0,
          0.0,
          0.0,
          0.0,
          0.0,
          0.0,
          0.0,
          0.0,
          0.0,
          0.0,
          0.0,
          0.0,
          0.0,
          0.0,
          0.0,
          0.0,
          0.0,
          0.0,
          0.0,
          0.0,
          0.0,
          0.0,
          0.0,
          0.0,
          0.0,
          0.0,
          0.0,
          0.0,
          0.0,
          0.0,
          0.0,
          0.0,
          10236.585400832875,
          17102.69953759814,
          785.3413615180252,
          -14986.896273115131,
          -8077.0009241368125,
          -417.21259830472604,
          0.0,
          0.0,
          0.0,
          0.0,
          219.2513368983722,
          995.8898770905491,
          2360.76739770106,
          3900.505514705878,
          5082.13575239167,
          3147.841563911843,
          1014.7383488011747,
          1143.021731048826,
          -3562.30238157006,
          -7434.466372615958,
          -4263.829180041261,
          -1339.01336830355,
          -810.5647050658599,
          -244.67362670815,
          0.0,
          0.0,
          0.0,
          0.0,
          0.0,
          184.34806876053284,
          1617.4137360832801,
          2571.902061808658,
          2468.05085948851,
          2377.1742340676615,
          1178.690558555173,
          -1765.534189498725,
          -2989.2828894664062,
          -2451.5553114145964,
          -1828.2466161730902,
          -1176.6026339366358,
          -743.7462121141698,
          -403.50404846776945,
          11.353806228353307,
          271.39365104329596,
          259.5155709342521,
          -8.65051903113175,
          -263.84083044982134,
          -262.4646115130563,
          -5.570409982193823,
          189.74209001776083,
          99.56698254163135,
          94.34472318341821,
          98.7488285755617,
          -160.135975346022,
          -275.09326340829875,
          -102.53906249999685,
          0.0,
          0.0,
          0.0,
          0.0,
          0.0,
          0.0,
          0.0,
          0.0,
          0.0,
          0.0,
          0.0,
          0.0,
          0.0,
          0.0,
          0.0,
          0.0,
          0.0,
          0.0,
          0.0,
          0.0,
          0.0,
          0.0,
          0.0,
          0.0,
          0.0,
          0.0,
          0.0,
          0.0,
          0.0,
          0.0,
          0.0,
          0.0,
          0.0,
          0.0,
          0.0,
          0.0,
          0.0,
          0.0,
          0.0,
          0.0,
          0.0,
          0.0,
          0.0,
          0.0,
          0.0,
          0.0,
          0.0,
          0.0,
          0.0,
          0.0,
          0.0,
          0.0,
          0.0,
          0.0,
          0.0,
          0.0,
          0.0,
          0.0,
          0.0,
          0.0,
          0.0,
          0.0,
          0.0,
          0.0,
          0.0,
          0.0,
          0.0
        ],
        "timestamps": [
          7.0,
          15.0,
          32.0,
          48.00000000000364,
          65.0,
          82.0,
          98.0,
          115.00000000000364,
          132.0,
          148.0,
          165.0,
          182.0,
          198.0,
          215.0,
          232.0,
          248.0,
          265.0,
          282.0,
          298.00000000000364,
          315.0,
          332.0,
          348.0,
          365.00000000000364,
          382.0,
          398.0,
          415.0,
          432.0,
          448.0,
          465.0,
          482.0,
          498.0,
          515.0,
          532.0,
          548.0000000000036,
          565.0,
          583.0000000000036,
          598.0,
          615.0000000000036,
          629.0,
          647.0000000000036,
          670.0000000000036,
          698.0,
          715.0,
          738.0,
          753.0,
          770.0,
          786.0,
          803.0,
          819.0,
          836.0000000000036,
          857.0,
          867.0,
          890.0,
          911.0,
          941.0,
          971.0,
          982.0,
          998.0,
          1021.0,
          1040.0,
          1058.0,
          1072.0,
          1089.0,
          1106.0000000000036,
          1123.0,
          1139.0,
          1155.0,
          1172.0,
          1188.0,
          1202.0000000000036,
          1220.0,
          1235.0,
          1252.0,
          1268.0,
          1284.0,
          1300.0,
          1317.0,
          1334.0,
          1351.0,
          1367.0,
          1384.0,
          1401.0,
          1417.0,
          1434.0,
          1451.0,
          1467.0,
          1486.0,
          1503.0,
          1512.0,
          1525.0,
          1560.0,
          1584.0,
          1599.0,
          1614.0,
          1629.0,
          1645.0,
          1661.0,
          1678.0,
          1694.0,
          1711.0000000000036,
          1728.0,
          1744.0,
          1761.0,
          1777.0,
          1794.0,
          1811.0,
          1828.0,
          1845.0,
          1861.0,
          1878.0,
          1894.0000000000036,
          1911.0,
          1928.0,
          1944.0,
          1962.0,
          1978.0,
          1994.0,
          2011.0,
          2028.0,
          2044.0,
          2060.0,
          2078.0,
          2095.0,
          2111.0,
          2128.0,
          2144.0000000000036,
          2161.0,
          2178.0,
          2194.0,
          2211.0000000000036,
          2225.0,
          2242.0,
          2259.0,
          2276.0,
          2292.0,
          2309.0,
          2326.0,
          2342.0,
          2359.0000000000036,
          2376.0,
          2392.0,
          2409.0,
          2426.0000000000036,
          2441.0,
          2457.0,
          2474.0,
          2490.0000000000036,
          2507.0,
          2524.0,
          2540.0,
          2557.0,
          2574.0,
          2590.0,
          2607.0,
          2623.0,
          2640.0,
          2657.0,
          2674.0,
          2690.0,
          2707.0,
          2723.0,
          2740.0000000000036,
          2756.0,
          2773.0,
          2790.0,
          2807.0,
          2824.0,
          2840.0,
          2857.0,
          2872.0,
          2890.0,
          2907.0,
          2923.0000000000036,
          2940.0,
          2957.0,
          2973.0,
          2990.0000000000036,
          3007.0,
          3023.0,
          3040.0,
          3056.0,
          3073.0,
          3090.0
        ]
      },
      "is_valid": false,
      "quality_score": 0.0,
      "issues": [
        "Reaction time too slow: 1072.0ms",
        "Path too indirect: 0.420"
      ]
    },
    {
      "trial_number": 2,
      "metrics": {
        "reaction_time": 358.0,
        "movement_time": 1963.0,
        "peak_velocity": 282.67058261250685,
        "time_to_peak_velocity": 439.0,
        "path_length": 31.600287953226108,
        "directness_ratio": 0.9684540836422287,
        "movement_units": 1,
        "corrective_movements": 8,
        "mean_velocity": 13.698969941719856,
        "movement_variability": 9.120887668830587,
        "velocity_peaks": [
          27
        ],
        "velocities": [
          0.0,
          0.0,
          0.0,
          0.0,
          0.0,
          0.0,
          0.0,
          0.0,
          0.0,
          0.0,
          0.0,
          0.0,
          0.0,
          0.0,
          0.0,
          0.0,
          0.0,
          0.0,
          0.0,
          0.0,
          0.0,
          22.187500000000025,
          66.71875000000004,
          117.8749999999877,
          172.2849264705738,
          212.76470588236106,
          262.583362755124,
          282.67058261250685,
          232.8851946067312,
          170.88621004345578,
          113.97058823529413,
          72.80330882352942,
          49.43014705882352,
          30.74448529411763,
          18.088235294117638,
          6.029411764705884,
          2.9411764705882377,
          5.8823529411764754,
          9.34742647058673,
          12.812499999996982,
          9.531249999998494,
          9.191176470588282,
          9.007352941176556,
          6.222426470589022,
          9.650735294119151,
          9.457720588236064,
          3.088235294117659,
          0.0,
          0.0,
          3.1249999999993343,
          6.249999999998669,
          3.1249999999993343,
          0.0,
          0.0,
          0.0,
          0.0,
          0.0,
          0.0,
          0.0,
          0.0,
          0.0,
          0.0,
          0.0,
          0.0,
          0.0,
          0.0,
          0.0,
          0.0,
          0.0,
          0.0,
          0.0,
          0.0,
          0.0,
          0.0,
          0.0,
          0.0,
          0.0,
          0.0,
          0.0,
          0.0,
          0.0,
          0.0,
          0.0,
          0.0,
          0.0,
          0.0,
          0.0,
          0.0,
          0.0,
          0.0,
          0.0,
          0.0,
          0.0,
          0.0,
          0.0,
          0.0,
          0.0,
          0.0,
          0.0,
          0.0,
          0.0,
          0.0,
          0.0,
          0.0,
          0.0,
          0.0,
          0.0,
          0.0,
          0.0,
          0.0,
          0.0,
          0.0,
          0.0,
          0.0,
          0.0,
          0.0,
          0.0,
          0.0,
          0.0,
          0.0,
          0.0,
          0.0,
          0.0,
          0.0,
          0.0,
          0.0,
          0.0,
          0.0,
          0.0,
          0.0,
          0.0,
          0.0,
          0.0,
          0.0,
          0.0,
          0.0,
          0.0,
          0.0,
          0.0,
          0.0,
          0.0
        ],
        "accelerations": [
          0.0,
          0.0,
          0.0,
          0.0,
          0.0,
          0.0,
          0.0,
          0.0,
          0.0,
          0.0,
          0.0,
          0.0,
          0.0,
          0.0,
          0.0,
          0.0,
          0.0,
          0.0,
          0.0,
          0.0,
          714.3702651515152,
          2084.9609375000055,
          2990.234374999617,
          3419.2335250623255,
          3043.1886173588846,
          2655.8363613105275,
          2067.6005679825084,
          -928.0677546372744,
          -3371.180612953175,
          -3497.4884226893278,
          -2884.791212350772,
          -1926.6563368328607,
          -1285.4693807670121,
          -921.8209342560547,
          -749.2201426024077,
          -476.33558771088974,
          -4.325259515609531,
          188.41911764701428,
          210.39049393141164,
          17.98197972361089,
          -104.53222482168309,
          -16.192075927913663,
          -87.31617647054023,
          30.95366238085512,
          104.87627955598026,
          -193.0147058823967,
          -281.0927178358192,
          -99.43181818181849,
          91.9117647058627,
          189.74209001776174,
          11.48897058814984,
          -189.7420900178033,
          -100.61553030300878,
          0.0,
          0.0,
          0.0,
          0.0,
          0.0,
          0.0,
          0.0,
          0.0,
          0.0,
          0.0,
          0.0,
          0.0,
          0.0,
          0.0,
          0.0,
          0.0,
          0.0,
          0.0,
          0.0,
          0.0,
          0.0,
          0.0,
          0.0,
          0.0,
          0.0,
          0.0,
          0.0,
          0.0,
          0.0,
          0.0,
          0.0,
          0.0,
          0.0,
          0.0,
          0.0,
          0.0,
          0.0,
          0.0,
          0.0,
          0.0,
          0.0,
          0.0,
          0.0,
          0.0,
          0.0,
          0.0,
          0.0,
          0.0,
          0.0,
          0.0,
          0.0,
          0.0,
          0.0,
          0.0,
          0.0,
          0.0,
          0.0,
          0.0,
          0.0,
          0.0,
          0.0,
          0.0,
          0.0,
          0.0,
          0.0,
          0.0,
          0.0,
          0.0,
          0.0,
          0.0,
          0.0,
          0.0,
          0.0,
          0.0,
          0.0,
          0.0,
          0.0,
          0.0,
          0.0,
          0.0,
          0.0,
          0.0,
          0.0,
          0.0,
          0.0,
          0.0,
          0.0,
          0.0
        ],
        "timestamps": [
          5.0,
          13.0,
          28.0,
          44.0,
          60.0,
          77.0,
          94.0,
          111.0,
          127.0,
          144.0,
          160.0,
          178.0,
          193.0,
          210.0,
          226.00000000000364,
          243.0,
          259.0,
          276.0,
          293.00000000000364,
          309.0,
          326.0,
          342.0,
          358.0,
          374.0,
          389.00000000000364,
          406.0,
          423.0,
          439.0,
          455.0,
          472.0,
          489.0,
          506.0,
          522.0,
          539.0,
          556.0,
          572.0000000000036,
          589.0,
          606.0,
          623.0,
          639.0000000000036,
          656.0,
          672.0,
          689.0,
          706.0000000000036,
          722.0,
          739.0,
          756.0,
          772.0,
          789.0,
          806.0,
          822.0000000000036,
          839.0,
          855.0,
          872.0,
          889.0000000000036,
          906.0,
          922.0,
          939.0,
          955.0,
          973.0,
          989.0,
          1006.0,
          1022.0,
          1039.0,
          1056.0,
          1072.0000000000036,
          1089.0,
          1106.0,
          1120.0,
          1137.0,
          1153.0,
          1170.0,
          1187.0,
          1203.0000000000036,
          1220.0,
          1236.0,
          1253.0,
          1269.0,
          1286.0,
          1302.0000000000036,
          1319.0,
          1335.0,
          1352.0,
          1368.0,
          1385.0,
          1402.0,
          1418.0000000000036,
          1435.0,
          1450.0000000000036,
          1468.0,
          1485.0000000000036,
          1501.0,
          1517.0000000000036,
          1534.0,
          1551.0,
          1567.0,
          1584.0000000000036,
          1600.0,
          1617.0,
          1634.0,
          1650.0,
          1666.0,
          1683.0,
          1700.0000000000036,
          1716.0,
          1732.0000000000036,
          1750.0,
          1766.0,
          1783.0,
          1799.0000000000036,
          1816.0,
          1832.0,
          1852.0,
          1869.0,
          1885.0,
          1902.0,
          1919.0,
          1935.0,
          1952.0,
          1968.0,
          1985.0000000000036,
          2001.0,
          2018.0,
          2035.0,
          2051.0,
          2068.0,
          2084.0000000000036,
          2101.0000000000036,
          2117.0,
          2133.0000000000036,
          2150.0,
          2167.0,
          2183.0,
          2204.0,
          2220.0,
          2238.0000000000036,
          2254.0,
          2271.0,
          2288.0,
          2304.0,
          2321.0
        ]
      },
      "is_valid": true,
      "quality_score": 0.7339882352941176,
      "issues": []
    },
    {
      "trial_number": 3,
      "metrics": {
        "reaction_time": 444.99999999999636,
        "movement_time": 819.0,
        "peak_velocity": 300.0980392156863,
        "time_to_peak_velocity": 513.9999999999964,
        "path_length": 29.807287484695944,
        "directness_ratio": 0.9985083057971551,
        "movement_units": 1,
        "corrective_movements": 8,
        "mean_velocity": 22.671247123525948,
        "movement_variability": 13.203309284353127,
        "velocity_peaks": [
          31
        ],
        "velocities": [
          0.0,
          0.0,
          0.0,
          0.0,
          0.0,
          0.0,
          0.0,
          0.0,
          0.0,
          0.0,
          0.0,
          0.0,
          0.0,
          0.0,
          0.0,
          0.0,
          0.0,
          0.0,
          0.0,
          0.0,
          0.0,
          0.0,
          0.0,
          0.0,
          0.0,
          0.0,
          6.406250000002971,
          30.753676470594158,
          60.376838235297,
          147.4509803921568,
          285.6372549019608,
          300.0980392156863,
          224.85294117644742,
          178.40992647055361,
          126.16304898334978,
          77.4191149347722,
          46.54209762535445,
          25.194119909237664,
          15.413602941176467,
          12.107843137254923,
          12.08333333333334,
          9.166666666666645,
          6.249999999999991,
          9.338235294117652,
          9.301470588235295,
          6.2132352941176485,
          12.27941176470589,
          18.12499999999875,
          18.31801470588276,
          18.841911764710456,
          18.465073529414667,
          21.259191176470573,
          18.694852941176464,
          9.347426470588239,
          5.8823529411764754,
          6.029411764705884,
          6.176470588235293,
          3.0882352941176463,
          0.0,
          0.0,
          0.0,
          0.0,
          0.0,
          0.0,
          0.0,
          0.0,
          0.0,
          0.0,
          0.0,
          0.0,
          0.0,
          0.0,
          0.0,
          0.0,
          0.0,
          0.0,
          0.0
        ],
        "accelerations": [
          0.0,
          0.0,
          0.0,
          0.0,
          0.0,
          0.0,
          0.0,
          0.0,
          0.0,
          0.0,
          0.0,
          0.0,
          0.0,
          0.0,
          0.0,
          0.0,
          0.0,
          0.0,
          0.0,
          0.0,
          0.0,
          0.0,
          0.0,
          0.0,
          0.0,
          182.70944741529593,
          966.62279968877,
          1628.7807109812572,
          3432.273644751839,
          6363.011707951061,
          4166.305084125149,
          -1787.7739331033254,
          -3579.062139562323,
          -3006.7690907434835,
          -3072.3924588062564,
          -2341.792686999865,
          -1567.968136271027,
          -966.2854170879467,
          -385.3806737028732,
          -110.02253740548457,
          -97.14813212866972,
          -177.09261734997062,
          16.247029114676934,
          98.38327042046757,
          -91.91176470588204,
          107.23448804655555,
          362.0315940546982,
          177.6059688581759,
          22.37277347455438,
          6.120283173530083,
          71.0964532870629,
          -2.874290591987119,
          -349.1571887779167,
          -376.838235294117,
          -94.09077802243888,
          8.929039530250435,
          -86.50519031141867,
          -187.50983013526246,
          -99.43181818181776,
          0.0,
          0.0,
          0.0,
          0.0,
          0.0,
          0.0,
          0.0,
          0.0,
          0.0,
          0.0,
          0.0,
          0.0,
          0.0,
          0.0,
          0.0,
          0.0,
          0.0,
          0.0
        ],
        "timestamps": [
          3.999999999996362,
          13.999999999992724,
          30.999999999996362,
          48.0,
          64.0,
          80.99999999999272,
          97.0,
          113.99999999999636,
          131.0,
          146.99999999999636,
          164.0,
          179.99999999999636,
          196.99999999999272,
          213.0,
          229.99999999999636,
          246.99999999999636,
          262.99999999999636,
          280.0,
          295.99999999999636,
          312.99999999999636,
          328.99999999999636,
          345.99999999999636,
          362.99999999999636,
          378.99999999999636,
          395.99999999999636,
          411.99999999999636,
          429.00000000000364,
          444.99999999999636,
          461.99999999999636,
          478.99999999999636,
          496.99999999999636,
          513.9999999999964,
          530.9999999999964,
          548.0000000000036,
          563.9999999999964,
          580.9999999999964,
          597.9999999999964,
          613.9999999999964,
          630.9999999999964,
          646.9999999999964,
          664.9999999999964,
          680.9999999999964,
          697.9999999999964,
          713.9999999999964,
          730.9999999999964,
          747.9999999999964,
          763.9999999999964,
          780.9999999999964,
          798.0000000000036,
          813.9999999999964,
          830.9999999999964,
          847.9999999999964,
          863.9999999999964,
          880.9999999999964,
          897.9999999999964,
          913.9999999999964,
          930.9999999999964,
          947.9999999999964,
          963.9999999999964,
          980.9999999999964,
          997.9999999999964,
          1014.9999999999964,
          1030.9999999999964,
          1048.0000000000036,
          1064.9999999999964,
          1080.9999999999964,
          1097.9999999999964,
          1115.0000000000036,
          1130.9999999999964,
          1147.9999999999964,
          1164.9999999999964,
          1180.9999999999964,
          1197.9999999999964,
          1213.9999999999964,
          1230.9999999999964,
          1247.9999999999964,
          1263.9999999999964
        ]
      },
      "is_valid": true,
      "quality_score": 0.7958823529411777,
      "issues": []
    },
    {
      "trial_number": 4,
      "metrics": {
        "reaction_time": 320.0,
        "movement_time": 776.0,
        "peak_velocity": 326.03112931806606,
        "time_to_peak_velocity": 378.0,
        "path_length": 31.03258795995184,
        "directness_ratio": 0.9868569564488883,
        "movement_units": 1,
        "corrective_movements": 6,
        "mean_velocity": 26.182316887315995,
        "movement_variability": 13.03721879266401,
        "velocity_peaks": [
          22
        ],
        "velocities": [
          0.0,
          0.0,
          0.0,
          0.0,
          0.0,
          0.0,
          0.0,
          0.0,
          0.0,
          0.0,
          0.0,
          0.0,
          0.0,
          0.0,
          0.0,
          0.0,
          0.0,
          0.0,
          6.406249999999947,
          49.08707410587331,
          118.10460753041438,
          231.10308807181863,
          326.03112931806606,
          278.06244290185583,
          188.51127182583863,
          134.7712418300653,
          106.68916335279603,
          87.86561559752717,
          53.60491760725417,
          33.83471536252316,
          24.724264705882394,
          15.22977941176468,
          12.104779411764628,
          15.533088235294121,
          15.340073529411983,
          9.154411764705863,
          6.249999999999645,
          3.1249999999998224,
          3.1249999999999334,
          6.249999999999867,
          3.1249999999999334,
          0.0,
          0.0,
          0.0,
          0.0,
          0.0,
          0.0,
          0.0,
          0.0,
          0.0,
          0.0,
          0.0,
          0.0,
          0.0,
          0.0,
          0.0,
          0.0,
          0.0,
          0.0,
          0.0,
          0.0,
          0.0,
          0.0,
          0.0,
          0.0,
          0.0
        ],
        "accelerations": [
          0.0,
          0.0,
          0.0,
          0.0,
          0.0,
          0.0,
          0.0,
          0.0,
          0.0,
          0.0,
          0.0,
          0.0,
          0.0,
          0.0,
          0.0,
          0.0,
          0.0,
          200.19531249999784,
          1533.9710658085394,
          3490.5736728254474,
          4471.465512443096,
          5031.418620660617,
          1304.4265230584551,
          -3819.9960414507686,
          -4042.208978487357,
          -2406.5326021483097,
          -1406.9760908482208,
          -1583.1934031620553,
          -1589.1441245589435,
          -857.1849392179496,
          -564.1163630863759,
          -371.161332179934,
          21.25459558823792,
          104.8762795559498,
          -187.60813148788975,
          -269.9314184230016,
          -182.63981729055814,
          -91.91176470587378,
          100.61553030303122,
          11.488970588235063,
          -183.82352941176123,
          -89.12655971479391,
          0.0,
          0.0,
          0.0,
          0.0,
          0.0,
          0.0,
          0.0,
          0.0,
          0.0,
          0.0,
          0.0,
          0.0,
          0.0,
          0.0,
          0.0,
          0.0,
          0.0,
          0.0,
          0.0,
          0.0,
          0.0,
          0.0,
          0.0,
          0.0
        ],
        "timestamps": [
          5.0,
          24.0,
          44.0,
          60.0,
          76.0,
          92.0,
          109.0,
          125.0,
          141.0,
          158.0,
          174.00000000000728,
          190.0,
          206.0,
          223.0,
          239.0,
          255.0,
          272.0,
          288.0,
          304.0,
          320.0,
          336.0,
          360.0000000000073,
          378.0,
          396.0,
          414.0,
          431.0,
          448.0,
          464.0,
          481.0,
          498.0,
          514.0,
          531.0,
          548.0,
          564.0,
          581.0,
          598.0,
          614.0,
          631.0,
          648.0,
          664.0,
          681.0,
          698.0,
          714.0,
          731.0,
          748.0,
          764.0,
          781.0,
          798.0,
          815.0,
          831.0,
          848.0,
          864.0,
          881.0,
          898.0,
          915.0,
          931.0,
          948.0,
          964.0,
          981.0,
          998.0,
          1014.0,
          1030.0,
          1047.0,
          1063.0,
          1080.0,
          1096.0
        ]
      },
      "is_valid": true,
      "quality_score": 0.84,
      "issues": []
    },
    {
      "trial_number": 5,
      "metrics": {
        "reaction_time": 425.9999999999927,
        "movement_time": 868.0,
        "peak_velocity": 327.32252987405764,
        "time_to_peak_velocity": 481.9999999999927,
        "path_length": 32.11123771794583,
        "directness_ratio": 0.9900784293181268,
        "movement_units": 1,
        "corrective_movements": 2,
        "mean_velocity": 23.685476599942376,
        "movement_variability": 14.308042634068126,
        "velocity_peaks": [
          29
        ],
        "velocities": [
          0.0,
          0.0,
          0.0,
          0.0,
          0.0,
          0.0,
          0.0,
          0.0,
          0.0,
          0.0,
          0.0,
          0.0,
          0.0,
          0.0,
          0.0,
          0.0,
          0.0,
          0.0,
          0.0,
          0.0,
          0.0,
          0.0,
          0.0,
          0.0,
          3.1250000000000444,
          15.220588235294198,
          48.154676762641415,
          133.9695280071444,
          249.17017401069796,
          327.32252987405764,
          322.57014828433324,
          251.44037575326954,
          196.0063173939135,
          145.21510169872712,
          80.74827841484445,
          43.22156939484592,
          26.831142595999054,
          16.24545626379671,
          8.970588235294109,
          2.941176470588277,
          0.0,
          0.0,
          0.0,
          0.0,
          0.0,
          0.0,
          0.0,
          0.0,
          0.0,
          0.0,
          0.0,
          0.0,
          0.0,
          0.0,
          0.0,
          0.0,
          0.0,
          0.0,
          0.0,
          0.0,
          0.0,
          0.0,
          0.0,
          0.0,
          0.0,
          0.0,
          0.0,
          0.0,
          0.0,
          0.0,
          0.0,
          0.0,
          0.0,
          0.0,
          0.0,
          0.0,
          0.0,
          0.0,
          0.0
        ],
        "accelerations": [
          0.0,
          0.0,
          0.0,
          0.0,
          0.0,
          0.0,
          0.0,
          0.0,
          0.0,
          0.0,
          0.0,
          0.0,
          0.0,
          0.0,
          0.0,
          0.0,
          0.0,
          0.0,
          0.0,
          0.0,
          0.0,
          0.0,
          0.0,
          89.1265597147962,
          478.5678475935868,
          1328.7379303699743,
          2898.7487137123285,
          5853.610586081066,
          5788.950780855536,
          1719.1159160836123,
          -2181.6689001094846,
          -3722.4656144241126,
          -3124.2727663100686,
          -3524.2271776971684,
          -3145.916826889671,
          -1598.002546121475,
          -829.6311325657905,
          -525.3104223736757,
          -391.30234685907277,
          -266.6588025584562,
          -94.69696969697094,
          0.0,
          0.0,
          0.0,
          0.0,
          0.0,
          0.0,
          0.0,
          0.0,
          0.0,
          0.0,
          0.0,
          0.0,
          0.0,
          0.0,
          0.0,
          0.0,
          0.0,
          0.0,
          0.0,
          0.0,
          0.0,
          0.0,
          0.0,
          0.0,
          0.0,
          0.0,
          0.0,
          0.0,
          0.0,
          0.0,
          0.0,
          0.0,
          0.0,
          0.0,
          0.0,
          0.0,
          0.0,
          0.0
        ],
        "timestamps": [
          4.999999999992724,
          7.999999999992724,
          24.999999999992724,
          44.999999999992724,
          64.0,
          79.99999999999272,
          96.99999999999272,
          113.99999999999272,
          131.0,
          146.99999999999272,
          162.99999999999272,
          180.0,
          195.99999999999272,
          211.99999999999272,
          228.99999999999272,
          244.99999999999272,
          261.9999999999927,
          277.9999999999927,
          293.9999999999927,
          311.0,
          326.9999999999927,
          343.9999999999927,
          359.9999999999927,
          375.9999999999927,
          392.9999999999927,
          408.9999999999927,
          425.9999999999927,
          446.9999999999927,
          462.9999999999927,
          481.9999999999927,
          497.9999999999927,
          514.9999999999927,
          531.9999999999927,
          548.9999999999927,
          564.9999999999927,
          581.9999999999927,
          597.9999999999927,
          614.9999999999927,
          631.9999999999927,
          648.9999999999927,
          664.9999999999927,
          681.9999999999927,
          698.9999999999927,
          714.9999999999927,
          731.9999999999927,
          748.9999999999927,
          764.9999999999927,
          781.9999999999927,
          798.9999999999927,
          814.9999999999927,
          831.9999999999927,
          848.9999999999927,
          864.9999999999927,
          881.9999999999927,
          898.9999999999927,
          914.9999999999927,
          931.9999999999927,
          948.9999999999927,
          964.9999999999927,
          981.9999999999927,
          998.9999999999927,
          1014.9999999999927,
          1031.9999999999927,
          1048.9999999999927,
          1064.9999999999927,
          1081.9999999999927,
          1097.9999999999927,
          1113.9999999999927,
          1131.9999999999927,
          1145.9999999999927,
          1161.9999999999927,
          1178.9999999999927,
          1195.9999999999927,
          1211.9999999999927,
          1227.9999999999927,
          1244.9999999999927,
          1260.9999999999927,
          1277.9999999999927,
          1293.9999999999927
        ]
      },
      "is_valid": true,
      "quality_score": 0.8025882352941202,
      "issues": []
    },
    {
      "trial_number": 6,
      "metrics": {
        "reaction_time": 391.0,
        "movement_time": 1452.0,
        "peak_velocity": 258.9849400458957,
        "time_to_peak_velocity": 448.0,
        "path_length": 29.39800249390342,
        "directness_ratio": 0.9913219176954142,
        "movement_units": 2,
        "corrective_movements": 6,
        "mean_velocity": 15.091411345830855,
        "movement_variability": 10.025132921997933,
        "velocity_peaks": [
          27,
          48
        ],
        "velocities": [
          0.0,
          0.0,
          0.0,
          0.0,
          0.0,
          0.0,
          0.0,
          0.0,
          0.0,
          0.0,
          0.0,
          0.0,
          0.0,
          0.0,
          0.0,
          0.0,
          0.0,
          0.0,
          0.0,
          0.0,
          0.0,
          0.0,
          3.1250000000000444,
          14.722222222222303,
          50.69444444444451,
          97.72222222222226,
          179.61747002294788,
          258.9849400458957,
          218.87482296412432,
          149.7058823529271,
          101.76470588232476,
          32.94117647057414,
          0.0,
          0.0,
          0.0,
          0.0,
          0.0,
          0.0,
          0.0,
          0.0,
          0.0,
          0.0,
          0.0,
          5.694444444444446,
          17.795138888888868,
          32.970740242535875,
          50.619472725813864,
          72.12343705678053,
          85.39988912848534,
          74.24901012905812,
          61.79439338889275,
          52.26314338888984,
          33.98048407080409,
          21.259191176472722,
          15.18382352941429,
          13.366013071895388,
          14.305555555555465,
          14.69719516019367,
          11.963834764831901,
          4.419417382415956,
          0.0,
          0.0,
          0.0,
          0.0,
          0.0,
          0.0,
          0.0,
          0.0,
          0.0,
          0.0,
          0.0,
          0.0,
          0.0,
          0.0,
          0.0,
          0.0,
          0.0,
          0.0,
          0.0,
          0.0,
          0.0,
          0.0,
          0.0,
          0.0,
          0.0,
          0.0,
          0.0,
          0.0,
          0.0,
          0.0,
          0.0,
          0.0,
          0.0,
          0.0,
          0.0,
          0.0,
          0.0,
          0.0,
          0.0,
          0.0,
          0.0,
          0.0,
          0.0,
          0.0,
          0.0,
          0.0,
          0.0,
          0.0,
          0.0,
          0.0,
          0.0,
          0.0
        ],
        "accelerations": [
          0.0,
          0.0,
          0.0,
          0.0,
          0.0,
          0.0,
          0.0,
          0.0,
          0.0,
          0.0,
          0.0,
          0.0,
          0.0,
          0.0,
          0.0,
          0.0,
          0.0,
          0.0,
          0.0,
          0.0,
          0.0,
          89.12655971479664,
          462.52197217270935,
          1324.1818718228026,
          2165.6351526965564,
          3223.075639462584,
          4404.985264196248,
          1154.6280276816588,
          -3214.089932146142,
          -3444.415208287758,
          -3583.2153717108754,
          -3155.4078850795827,
          -939.4987941696718,
          0.0,
          0.0,
          0.0,
          0.0,
          0.0,
          0.0,
          0.0,
          0.0,
          0.0,
          162.40839770251466,
          498.79558304803305,
          818.491893010559,
          963.5386391238549,
          1126.775735845054,
          1022.9534236079837,
          19.626526239073428,
          -714.236398876651,
          -646.6431394167137,
          -860.4822351742987,
          -951.4638506989526,
          -552.842957099903,
          -231.80050577873436,
          -35.58493795130153,
          37.521865575955644,
          -73.17877471011093,
          -321.18055555555327,
          -365.1717812296786,
          -115.54032372319249,
          0.0,
          0.0,
          0.0,
          0.0,
          0.0,
          0.0,
          0.0,
          0.0,
          0.0,
          0.0,
          0.0,
          0.0,
          0.0,
          0.0,
          0.0,
          0.0,
          0.0,
          0.0,
          0.0,
          0.0,
          0.0,
          0.0,
          0.0,
          0.0,
          0.0,
          0.0,
          0.0,
          0.0,
          0.0,
          0.0,
          0.0,
          0.0,
          0.0,
          0.0,
          0.0,
          0.0,
          0.0,
          0.0,
          0.0,
          0.0,
          0.0,
          0.0,
          0.0,
          0.0,
          0.0,
          0.0,
          0.0,
          0.0,
          0.0,
          0.0,
          0.0
        ],
        "timestamps": [
          5.0,
          9.0,
          25.0,
          46.0,
          62.0,
          78.0,
          94.0,
          111.0,
          127.00000000000728,
          144.0,
          160.0,
          177.0,
          193.0,
          209.0,
          226.0,
          242.0,
          259.0,
          275.0,
          291.0,
          308.0,
          324.0,
          340.0,
          357.0,
          373.0,
          391.0,
          411.0,
          431.0,
          448.0,
          465.0,
          482.0,
          499.0000000000073,
          515.0,
          532.0,
          548.0,
          565.0,
          581.0,
          598.0,
          614.0,
          631.0,
          647.0,
          663.0,
          680.0,
          696.0,
          713.0,
          731.0,
          747.0,
          765.0,
          782.0,
          799.0,
          815.0,
          832.0,
          849.0,
          865.0000000000073,
          882.0,
          899.0,
          915.0,
          933.0,
          949.0,
          965.0,
          981.0,
          999.0000000000073,
          1015.0,
          1032.0,
          1048.0,
          1065.0,
          1082.0,
          1099.0,
          1115.0000000000073,
          1132.0,
          1149.0,
          1166.0,
          1182.0000000000073,
          1199.0,
          1215.0,
          1232.0,
          1249.0000000000073,
          1266.0,
          1282.0,
          1299.0,
          1316.0000000000073,
          1332.0,
          1349.0,
          1366.0,
          1382.0,
          1399.0,
          1415.0,
          1432.0000000000073,
          1448.0,
          1464.0,
          1481.0,
          1497.0,
          1514.0,
          1530.0,
          1547.0,
          1563.0000000000073,
          1580.0,
          1596.0,
          1613.0,
          1629.0,
          1646.0,
          1662.0,
          1679.0000000000073,
          1695.0,
          1715.0,
          1728.0,
          1744.0,
          1761.0,
          1777.0,
          1794.0,
          1810.0000000000073,
          1827.0,
          1843.0
        ]
      },
      "is_valid": true,
      "quality_score": 0.8149411764705882,
      "issues": []
    },
    {
      "trial_number": 7,
      "metrics": {
        "reaction_time": 414.0,
        "movement_time": 1263.0,
        "peak_velocity": 285.78422950125076,
        "time_to_peak_velocity": 464.0,
        "path_length": 32.19077451755915,
        "directness_ratio": 0.925924627130547,
        "movement_units": 2,
        "corrective_movements": 14,
        "mean_velocity": 19.071546237982616,
        "movement_variability": 11.14745953074798,
        "velocity_peaks": [
          27,
          54
        ],
        "velocities": [
          0.0,
          2.941176470588277,
          5.882352941176554,
          2.941176470588277,
          3.0882352941189817,
          9.301470588238008,
          9.33823529411907,
          3.1250000000000444,
          0.0,
          0.0,
          0.0,
          3.088235294117555,
          6.17647058823511,
          3.088235294117555,
          0.0,
          0.0,
          0.0,
          0.0,
          0.0,
          0.0,
          0.0,
          3.2812499999999023,
          9.687499999999849,
          22.264414871873818,
          66.39917801634131,
          151.3657551260782,
          246.65413569062787,
          285.78422950125076,
          255.95249387512948,
          206.16546116456524,
          150.74912462632622,
          103.33233686852577,
          65.72047878602312,
          32.45675235408909,
          12.428465362524381,
          5.882352941178968,
          2.941176470589484,
          0.0,
          0.0,
          4.419417382415956,
          8.838834764831912,
          7.507652676532281,
          9.301470588234004,
          12.279411764707271,
          9.00735294117783,
          2.9411764705882377,
          0.0,
          0.0,
          0.0,
          6.406250000000002,
          18.841911764705888,
          24.871323529411768,
          23.00136341874257,
          23.69574154337133,
          28.506878124632607,
          24.724264705886206,
          18.318014705879776,
          18.124999999996255,
          12.279411764706143,
          3.1250000000014238,
          0.0,
          0.0,
          0.0,
          0.0,
          0.0,
          0.0,
          0.0,
          0.0,
          0.0,
          0.0,
          0.0,
          0.0,
          0.0,
          0.0,
          0.0,
          0.0,
          0.0,
          0.0,
          0.0,
          0.0,
          0.0,
          0.0,
          0.0,
          0.0,
          0.0,
          0.0,
          0.0,
          0.0,
          0.0,
          0.0,
          0.0,
          0.0,
          0.0,
          0.0,
          0.0,
          0.0,
          0.0,
          0.0,
          0.0,
          0.0,
          0.0
        ],
        "accelerations": [
          173.01038062291389,
          173.01038062287682,
          0.0,
          -79.14897242317623,
          181.9394201533211,
          178.38828378956393,
          -193.0147058824364,
          -287.2843377547451,
          -81.6993464051599,
          0.0,
          99.43181818181506,
          187.509830135257,
          2.984279490192421e-13,
          -181.6608996539738,
          -88.0780119534626,
          0.0,
          0.0,
          0.0,
          0.0,
          0.0,
          96.50735294117337,
          299.8447248217421,
          593.2239022460593,
          1569.9979354034801,
          3761.3555118866325,
          5301.6164021848945,
          3977.5426176241854,
          409.05445532340855,
          -2341.7284804907504,
          -3094.2167426118585,
          -3107.178455413714,
          -2599.3858434854037,
          -2084.5760151304953,
          -1593.5482294045723,
          -831.5485428278702,
          -279.0379085864261,
          -178.58079060508774,
          -94.6969696970293,
          129.98286418881483,
          268.3358370562788,
          104.32586997699391,
          13.606935982371397,
          147.04126397022853,
          2.559931058157389,
          -274.6539792387949,
          -267.7073503198456,
          -94.69696969696969,
          0.0,
          188.4191176470581,
          583.1000724153294,
          572.3524578614865,
          111.75478384372843,
          -40.40303833318421,
          161.92690311451554,
          15.42732695924633,
          -304.4981370342431,
          -194.0960207615077,
          -193.715103019884,
          -449.2986198489129,
          -361.1591695501804,
          -89.12655971483642,
          0.0,
          0.0,
          0.0,
          0.0,
          0.0,
          0.0,
          0.0,
          0.0,
          0.0,
          0.0,
          0.0,
          0.0,
          0.0,
          0.0,
          0.0,
          0.0,
          0.0,
          0.0,
          0.0,
          0.0,
          0.0,
          0.0,
          0.0,
          0.0,
          0.0,
          0.0,
          0.0,
          0.0,
          0.0,
          0.0,
          0.0,
          0.0,
          0.0,
          0.0,
          0.0,
          0.0,
          0.0,
          0.0,
          0.0,
          0.0
        ],
        "timestamps": [
          14.000000000007276,
          31.0,
          48.0,
          65.0,
          81.00000000000728,
          98.0,
          114.0,
          130.0,
          148.00000000000728,
          164.0,
          181.0,
          197.0,
          214.0,
          231.0,
          248.0,
          264.0000000000073,
          281.0,
          297.0,
          314.0,
          330.0,
          347.0,
          364.0,
          380.0,
          396.0,
          414.0,
          431.0,
          448.0,
          464.0,
          481.0,
          498.0,
          515.0,
          531.0,
          548.0,
          565.0,
          581.0000000000073,
          598.0,
          615.0,
          631.0,
          648.0000000000073,
          665.0,
          681.0,
          698.0,
          715.0000000000073,
          731.0,
          748.0,
          765.0,
          781.0,
          798.0,
          815.0,
          832.0,
          848.0,
          865.0,
          881.0,
          898.0000000000073,
          915.0,
          931.0,
          948.0,
          965.0000000000073,
          981.0,
          998.0,
          1015.0,
          1031.0,
          1048.0,
          1065.0,
          1081.0000000000073,
          1098.0,
          1115.0,
          1131.0,
          1148.0000000000073,
          1164.0,
          1181.0,
          1197.0,
          1214.0,
          1231.0,
          1247.0,
          1264.0000000000073,
          1280.0,
          1297.0,
          1313.0,
          1330.0,
          1346.0,
          1363.0,
          1380.0,
          1396.0,
          1413.0,
          1429.0,
          1446.0,
          1462.0000000000073,
          1479.0,
          1495.0,
          1512.0,
          1529.0000000000073,
          1545.0,
          1562.0,
          1578.0000000000073,
          1595.0,
          1611.0,
          1628.0,
          1645.0000000000073,
          1661.0,
          1677.0
        ]
      },
      "is_valid": true,
      "quality_score": 0.8068235294117646,
      "issues": []
    },
    {
      "trial_number": 8,
      "metrics": {
        "reaction_time": 443.0,
        "movement_time": 1933.0,
        "peak_velocity": 179.7559219678945,
        "time_to_peak_velocity": 508.0,
        "path_length": 32.002428050679875,
        "directness_ratio": 0.9427638053536855,
        "movement_units": 4,
        "corrective_movements": 12,
        "mean_velocity": 13.57590685578711,
        "movement_variability": 10.200627924509076,
        "velocity_peaks": [
          31,
          53,
          65,
          75
        ],
        "velocities": [
          0.0,
          0.0,
          0.0,
          0.0,
          0.0,
          0.0,
          0.0,
          0.0,
          0.0,
          0.0,
          0.0,
          0.0,
          0.0,
          0.0,
          0.0,
          0.0,
          0.0,
          0.0,
          0.0,
          0.0,
          0.0,
          0.0,
          0.0,
          0.0,
          0.0,
          6.406250000000058,
          19.218750000000064,
          28.18933823529406,
          33.834715362519006,
          78.33972039868286,
          156.7643833301039,
          179.7559219678945,
          164.40313210873563,
          159.7463225144367,
          132.522883016955,
          94.60290305841876,
          72.01534235641333,
          50.06944444444444,
          24.0451388888889,
          5.694444444444446,
          0.0,
          0.0,
          0.0,
          0.0,
          0.0,
          0.0,
          0.0,
          0.0,
          3.0882352941176334,
          12.058823529411743,
          26.241830065359476,
          40.39089994971691,
          47.925107676340176,
          51.10611785374553,
          45.55606803289373,
          31.31422326524856,
          21.21323529411762,
          15.220588235294116,
          14.701797385620912,
          17.663398692810468,
          15.449346405228784,
          16.83123249299719,
          22.445137644885122,
          19.69069545783625,
          20.62686930265388,
          29.03153054243198,
          25.589294682981333,
          19.058823529411796,
          18.50000000000002,
          14.852941176470635,
          12.104779411764792,
          13.531454248366064,
          15.601511437908474,
          21.507191724745923,
          32.97328367335113,
          38.99068050087176,
          34.853319361723756,
          26.97834912755203,
          20.047836312002715,
          13.221951654038607,
          4.53125000000003,
          0.0,
          0.0,
          0.0,
          0.0,
          0.0,
          0.0,
          0.0,
          0.0,
          0.0,
          0.0,
          0.0,
          0.0,
          0.0,
          0.0,
          0.0,
          0.0,
          0.0,
          0.0,
          0.0,
          0.0,
          0.0,
          0.0,
          0.0,
          0.0,
          0.0,
          0.0,
          0.0,
          0.0,
          0.0,
          0.0,
          0.0,
          0.0,
          0.0,
          0.0,
          0.0,
          0.0,
          0.0,
          0.0,
          0.0,
          0.0,
          0.0,
          0.0,
          0.0,
          0.0,
          0.0,
          0.0,
          0.0,
          0.0,
          0.0,
          0.0,
          0.0,
          0.0,
          0.0,
          0.0,
          0.0,
          0.0,
          0.0,
          0.0,
          0.0,
          0.0,
          0.0,
          0.0,
          0.0,
          0.0
        ],
        "accelerations": [
          0.0,
          0.0,
          0.0,
          0.0,
          0.0,
          0.0,
          0.0,
          0.0,
          0.0,
          0.0,
          0.0,
          0.0,
          0.0,
          0.0,
          0.0,
          0.0,
          0.0,
          0.0,
          0.0,
          0.0,
          0.0,
          0.0,
          0.0,
          0.0,
          188.41911764706126,
          595.2331216577556,
          680.7215073529369,
          449.834730901242,
          1475.011240098871,
          4004.70021082298,
          3393.791653756155,
          302.3886433135267,
          -587.804386886929,
          -926.3612393173594,
          -1915.9829251772785,
          -1808.7477620615991,
          -1391.670581686696,
          -1406.525035304343,
          -1287.5660970406668,
          -753.245150648643,
          -162.4083977025153,
          0.0,
          0.0,
          0.0,
          0.0,
          0.0,
          0.0,
          93.39421252371866,
          355.27747195134646,
          680.9880815071157,
          810.8660424114272,
          666.1533104330256,
          408.87730404436957,
          -74.03248885759331,
          -584.8793069009946,
          -715.965668787532,
          -481.0302941855516,
          -207.7412497232985,
          64.22171265020148,
          -5.723080477981398,
          -40.310875167060544,
          256.6099569122009,
          118.76157479691199,
          -71.73954374674895,
          297.30476855739016,
          172.4303384891208,
          -326.20211173504583,
          -246.6962570464728,
          -123.70242214532897,
          -188.09472318338942,
          -32.444338679469695,
          101.3252948919187,
          234.51792163521043,
          537.6063643691281,
          540.7925758680786,
          55.29516730482351,
          -371.54978267577167,
          -451.21186257311274,
          -417.43448606642824,
          -467.6359502657624,
          -388.8809310011335,
          -129.2335115864853,
          0.0,
          0.0,
          0.0,
          0.0,
          0.0,
          0.0,
          0.0,
          0.0,
          0.0,
          0.0,
          0.0,
          0.0,
          0.0,
          0.0,
          0.0,
          0.0,
          0.0,
          0.0,
          0.0,
          0.0,
          0.0,
          0.0,
          0.0,
          0.0,
          0.0,
          0.0,
          0.0,
          0.0,
          0.0,
          0.0,
          0.0,
          0.0,
          0.0,
          0.0,
          0.0,
          0.0,
          0.0,
          0.0,
          0.0,
          0.0,
          0.0,
          0.0,
          0.0,
          0.0,
          0.0,
          0.0,
          0.0,
          0.0,
          0.0,
          0.0,
          0.0,
          0.0,
          0.0,
          0.0,
          0.0,
          0.0,
          0.0,
          0.0,
          0.0,
          0.0,
          0.0,
          0.0,
          0.0
        ],
        "timestamps": [
          4.0,
          14.0,
          29.0,
          46.0,
          62.0,
          79.0,
          95.0,
          112.0,
          129.0,
          145.0,
          162.0,
          178.00000000000728,
          195.0,
          211.0,
          228.0,
          244.0,
          261.0,
          278.0,
          294.0000000000073,
          311.0,
          327.0,
          344.0,
          360.0,
          377.0,
          394.0,
          411.0,
          427.0,
          443.0,
          460.0,
          477.0000000000073,
          492.0000000000073,
          508.0,
          525.0,
          541.0000000000073,
          558.0,
          575.0,
          591.0,
          607.0,
          625.0,
          641.0,
          658.0,
          674.0,
          691.0,
          708.0,
          725.0,
          741.0,
          759.0,
          774.0,
          790.0,
          807.0,
          824.0,
          842.0,
          855.0000000000073,
          871.0,
          887.0,
          904.0,
          921.0,
          937.0,
          954.0,
          972.0,
          987.0,
          1004.0,
          1018.0,
          1033.0,
          1050.0000000000073,
          1066.0,
          1083.0,
          1098.0,
          1115.0,
          1132.0,
          1149.0,
          1165.0,
          1183.0,
          1200.0,
          1216.0,
          1233.0000000000073,
          1250.0,
          1266.0,
          1283.0,
          1299.0,
          1316.0,
          1333.0,
          1349.0000000000073,
          1366.0,
          1383.0,
          1400.0,
          1416.0000000000073,
          1433.0,
          1450.0,
          1466.0,
          1483.0000000000073,
          1500.0,
          1516.0,
          1533.0,
          1550.0000000000073,
          1566.0,
          1583.0,
          1599.0000000000073,
          1616.0,
          1632.0,
          1649.0,
          1665.0,
          1682.0,
          1698.0,
          1715.0,
          1732.0,
          1748.0,
          1765.0,
          1781.0,
          1798.0,
          1814.0,
          1831.0,
          1847.0,
          1864.0000000000073,
          1880.0,
          1897.0,
          1913.0000000000073,
          1930.0,
          1946.0,
          1963.0,
          1979.0,
          1996.0,
          2012.0,
          2029.0,
          2045.0,
          2062.0,
          2078.0,
          2095.0,
          2111.0000000000073,
          2128.0,
          2144.0,
          2161.0,
          2177.0,
          2194.0,
          2210.0,
          2227.0000000000073,
          2243.0,
          2260.0,
          2277.0,
          2293.0,
          2310.0,
          2326.0,
          2343.0,
          2359.0,
          2376.0
        ]
      },
      "is_valid": true,
      "quality_score": 0.7099882352941177,
      "issues": []
    },
    {
      "trial_number": 9,
      "metrics": {
        "reaction_time": 431.0,
        "movement_time": 3144.0,
        "peak_velocity": 185.67823082366618,
        "time_to_peak_velocity": 481.0,
        "path_length": 30.551009865773466,
        "directness_ratio": 0.9645962941711563,
        "movement_units": 3,
        "corrective_movements": 16,
        "mean_velocity": 8.495106998610524,
        "movement_variability": 7.507308359435501,
        "velocity_peaks": [
          28,
          48,
          51
        ],
        "velocities": [
          0.0,
          2.941176470588277,
          5.882352941176554,
          2.941176470588277,
          0.0,
          0.0,
          0.0,
          0.0,
          0.0,
          0.0,
          0.0,
          0.0,
          0.0,
          3.1250000000000444,
          6.250000000000089,
          3.1250000000000444,
          0.0,
          0.0,
          0.0,
          0.0,
          0.0,
          0.0,
          3.1249999999986233,
          6.249999999997247,
          13.933573426476798,
          52.92962764396357,
          121.46484688330217,
          172.18290807764987,
          185.67823082366618,
          176.75278022781922,
          154.79601775716256,
          114.99999999999997,
          71.41595230650074,
          45.47896343653085,
          18.180658188853627,
          0.0,
          0.0,
          0.0,
          0.0,
          0.0,
          0.0,
          0.0,
          0.0,
          0.0,
          0.0,
          3.1250000000000444,
          15.220588235294198,
          39.154411764705856,
          63.088235294117524,
          62.94117647058814,
          53.82352941176465,
          54.540441176470615,
          43.19852941176481,
          27.4816176470588,
          20.88235294117639,
          15.193014705882398,
          12.44485294117658,
          12.288602941176611,
          13.558600707328676,
          14.80102494406894,
          14.409228831955438,
          14.541329778665439,
          17.298622176096806,
          19.522826338234083,
          19.15939111029347,
          18.84191176470583,
          19.062892827221173,
          22.896006242680595,
          23.746241540089116,
          17.66632977866825,
          10.041804595215053,
          2.941176470588277,
          0.0,
          3.2812500000000133,
          6.562500000000027,
          3.2812500000000133,
          0.0,
          0.0,
          0.0,
          0.0,
          0.0,
          0.0,
          0.0,
          0.0,
          0.0,
          0.0,
          0.0,
          0.0,
          0.0,
          0.0,
          0.0,
          0.0,
          0.0,
          0.0,
          0.0,
          0.0,
          0.0,
          0.0,
          0.0,
          0.0,
          0.0,
          0.0,
          0.0,
          0.0,
          0.0,
          0.0,
          0.0,
          0.0,
          0.0,
          0.0,
          0.0,
          0.0,
          0.0,
          0.0,
          0.0,
          0.0,
          0.0,
          0.0,
          0.0,
          0.0,
          0.0,
          0.0,
          0.0,
          0.0,
          0.0,
          0.0,
          0.0,
          0.0,
          0.0,
          0.0,
          0.0,
          0.0,
          0.0,
          0.0,
          0.0,
          0.0,
          0.0,
          0.0,
          0.0,
          0.0,
          0.0,
          0.0,
          0.0,
          0.0,
          0.0,
          0.0,
          0.0,
          0.0,
          0.0,
          0.0,
          0.0,
          0.0,
          0.0,
          0.0,
          0.0,
          0.0,
          0.0,
          0.0,
          0.0,
          0.0,
          0.0,
          0.0,
          0.0,
          0.0,
          0.0,
          0.0,
          0.0,
          0.0,
          0.0,
          0.0,
          0.0,
          0.0,
          0.0,
          0.0,
          0.0,
          0.0,
          0.0,
          0.0,
          0.0,
          0.0,
          0.0,
          0.0,
          0.0,
          0.0,
          0.0,
          0.0,
          0.0,
          0.0,
          0.0,
          0.0,
          0.0,
          0.0,
          0.0,
          0.0,
          0.0,
          0.0,
          0.0,
          0.0,
          0.0,
          0.0,
          0.0,
          0.0,
          0.0,
          0.0,
          0.0,
          0.0,
          0.0,
          0.0,
          0.0,
          0.0,
          0.0,
          0.0,
          0.0,
          0.0,
          0.0
        ],
        "accelerations": [
          183.82352941176728,
          178.58079060501456,
          0.0,
          -178.58079060501456,
          -94.69696969697102,
          0.0,
          0.0,
          0.0,
          0.0,
          0.0,
          0.0,
          0.0,
          89.12655971487474,
          189.7420900178649,
          11.488970588235787,
          -183.82352941176714,
          -91.91176470588343,
          0.0,
          0.0,
          0.0,
          0.0,
          89.12655971475567,
          189.74209001769452,
          319.75487936489657,
          1372.9302248224367,
          3162.684513436038,
          3507.449424520182,
          1881.0129165944418,
          179.95019174040772,
          -908.3003843089291,
          -1907.5290022624863,
          -2524.3499711849117,
          -2044.7363695137997,
          -1565.7439446366834,
          -1363.923391263821,
          -585.3621007774836,
          0.0,
          0.0,
          0.0,
          0.0,
          0.0,
          0.0,
          0.0,
          0.0,
          89.1265597147962,
          478.5678475935848,
          1072.0458805179799,
          1407.8719723183362,
          699.6107266436031,
          -272.4913494809664,
          -247.08044982698584,
          -344.72850804759923,
          -813.429357371291,
          -656.3581314878941,
          -361.4294982698938,
          -250.74524712959482,
          -92.93880904634369,
          36.43375160627829,
          76.32463892863797,
          25.018474253728016,
          -7.6380931001032195,
          92.54404469868831,
          152.2118725896625,
          54.72849806460869,
          -20.587226963861895,
          -3.9193826727829446,
          119.23807288153989,
          136.69730785517243,
          -146.02711786677014,
          -403.07167484923724,
          -446.07397225726004,
          -312.5025294661022,
          10.002162629759354,
          199.2291945187178,
          12.063419117645836,
          -193.01470588235355,
          -93.58288770053412,
          0.0,
          0.0,
          0.0,
          0.0,
          0.0,
          0.0,
          0.0,
          0.0,
          0.0,
          0.0,
          0.0,
          0.0,
          0.0,
          0.0,
          0.0,
          0.0,
          0.0,
          0.0,
          0.0,
          0.0,
          0.0,
          0.0,
          0.0,
          0.0,
          0.0,
          0.0,
          0.0,
          0.0,
          0.0,
          0.0,
          0.0,
          0.0,
          0.0,
          0.0,
          0.0,
          0.0,
          0.0,
          0.0,
          0.0,
          0.0,
          0.0,
          0.0,
          0.0,
          0.0,
          0.0,
          0.0,
          0.0,
          0.0,
          0.0,
          0.0,
          0.0,
          0.0,
          0.0,
          0.0,
          0.0,
          0.0,
          0.0,
          0.0,
          0.0,
          0.0,
          0.0,
          0.0,
          0.0,
          0.0,
          0.0,
          0.0,
          0.0,
          0.0,
          0.0,
          0.0,
          0.0,
          0.0,
          0.0,
          0.0,
          0.0,
          0.0,
          0.0,
          0.0,
          0.0,
          0.0,
          0.0,
          0.0,
          0.0,
          0.0,
          0.0,
          0.0,
          0.0,
          0.0,
          0.0,
          0.0,
          0.0,
          0.0,
          0.0,
          0.0,
          0.0,
          0.0,
          0.0,
          0.0,
          0.0,
          0.0,
          0.0,
          0.0,
          0.0,
          0.0,
          0.0,
          0.0,
          0.0,
          0.0,
          0.0,
          0.0,
          0.0,
          0.0,
          0.0,
          0.0,
          0.0,
          0.0,
          0.0,
          0.0,
          0.0,
          0.0,
          0.0,
          0.0,
          0.0,
          0.0,
          0.0,
          0.0,
          0.0,
          0.0,
          0.0,
          0.0,
          0.0,
          0.0,
          0.0,
          0.0,
          0.0,
          0.0,
          0.0,
          0.0
        ],
        "timestamps": [
          15.0,
          31.0,
          48.0,
          65.0,
          81.0,
          98.0,
          115.0,
          131.0,
          148.0,
          164.0,
          180.0,
          198.0,
          214.00000000000728,
          231.0,
          247.0,
          264.0,
          281.0,
          298.0,
          314.0,
          331.0,
          348.0,
          364.0,
          381.0,
          397.0000000000073,
          414.0,
          431.0,
          448.0,
          465.0,
          481.0,
          498.0,
          515.0,
          531.0,
          548.0,
          565.0,
          582.0,
          598.0,
          615.0,
          631.0,
          648.0,
          665.0,
          681.0,
          698.0,
          714.0000000000073,
          731.0,
          747.0,
          764.0,
          780.0,
          797.0,
          814.0,
          831.0,
          848.0,
          865.0,
          881.0,
          898.0,
          915.0,
          932.0,
          948.0,
          965.0,
          981.0,
          998.0,
          1015.0,
          1032.0,
          1048.0,
          1065.0,
          1082.0,
          1098.0,
          1115.0,
          1132.0000000000073,
          1148.0,
          1165.0,
          1182.0,
          1198.0,
          1215.0,
          1232.0,
          1248.0,
          1265.0,
          1282.0,
          1298.0,
          1315.0,
          1332.0,
          1348.0,
          1365.0,
          1382.0000000000073,
          1398.0,
          1415.0,
          1432.0,
          1448.0,
          1465.0,
          1482.0,
          1498.0,
          1515.0,
          1532.0,
          1548.0,
          1565.0,
          1581.0,
          1598.0,
          1614.0,
          1631.0,
          1648.0,
          1664.0,
          1681.0,
          1698.0,
          1714.0000000000073,
          1731.0,
          1747.0,
          1764.0,
          1781.0000000000073,
          1797.0,
          1814.0,
          1830.0000000000073,
          1847.0,
          1864.0,
          1880.0,
          1897.0000000000073,
          1914.0,
          1930.0,
          1947.0,
          1963.0,
          1980.0,
          1997.0,
          2013.0000000000073,
          2030.0,
          2047.0,
          2063.0,
          2080.0000000000073,
          2096.0,
          2113.0,
          2130.0,
          2146.0,
          2163.0,
          2179.0,
          2196.0000000000073,
          2213.0,
          2229.0,
          2246.0,
          2262.0,
          2279.0,
          2296.0,
          2312.0,
          2329.0,
          2345.0,
          2362.0,
          2379.0,
          2395.0,
          2412.0,
          2428.0,
          2445.0,
          2462.0,
          2478.0,
          2495.0,
          2512.0,
          2528.0000000000073,
          2545.0,
          2561.0,
          2578.0,
          2595.0,
          2611.0,
          2628.0,
          2644.0000000000073,
          2661.0,
          2678.0,
          2694.0,
          2711.0000000000073,
          2727.0,
          2744.0,
          2761.0,
          2777.0,
          2794.0,
          2811.0,
          2827.0000000000073,
          2844.0,
          2860.0,
          2877.0,
          2893.0,
          2910.0,
          2927.0,
          2943.0,
          2960.0,
          2977.0,
          2994.0,
          3010.0000000000073,
          3027.0,
          3043.0,
          3060.0,
          3076.0,
          3093.0,
          3109.0,
          3126.0,
          3143.0,
          3159.0,
          3176.0,
          3193.0,
          3209.0,
          3226.0,
          3242.0,
          3259.0,
          3276.0,
          3292.0,
          3309.0,
          3325.0,
          3342.0000000000073,
          3359.0,
          3375.0,
          3392.0,
          3408.0,
          3425.0,
          3442.0,
          3458.0000000000073,
          3475.0,
          3491.0,
          3508.0,
          3525.0000000000073,
          3541.0,
          3558.0,
          3575.0
        ]
      },
      "is_valid": false,
      "quality_score": 0.0,
      "issues": [
        "Movement time too slow: 3144.0ms"
      ]
    },
    {
      "trial_number": 10,
      "metrics": {
        "reaction_time": 379.0,
        "movement_time": 985.0,
        "peak_velocity": 183.87843133321164,
        "time_to_peak_velocity": 880.0,
        "path_length": 44.546523665475206,
        "directness_ratio": 0.746239928137956,
        "movement_units": 5,
        "corrective_movements": 9,
        "mean_velocity": 32.45696359527335,
        "movement_variability": 13.845063006397382,
        "velocity_peaks": [
          23,
          33,
          49,
          52,
          78
        ],
        "velocities": [
          0.0,
          0.0,
          0.0,
          0.0,
          0.0,
          0.0,
          0.0,
          0.0,
          0.0,
          0.0,
          0.0,
          0.0,
          0.0,
          0.0,
          0.0,
          0.0,
          0.0,
          0.0,
          0.0,
          0.0,
          0.0,
          19.062499999999982,
          56.06617647058818,
          64.52514557346788,
          42.98411467635012,
          24.43323380876706,
          15.340073529414301,
          16.359261604680718,
          37.72771438583196,
          74.23609983997471,
          104.908088235294,
          130.3216911764706,
          150.8720791304372,
          154.08927260599202,
          143.3538109853541,
          122.33988538036317,
          75.14444434115214,
          21.029411764705877,
          0.0,
          0.0,
          0.0,
          0.0,
          0.0,
          0.0,
          0.0,
          0.0,
          12.656250000000036,
          61.34191176470594,
          123.80783429961929,
          147.15610977570915,
          134.975113711384,
          143.97444533757343,
          183.87843133321164,
          179.37431535072014,
          115.43164051210975,
          69.1998876462179,
          54.52050242021498,
          35.459033126988224,
          17.449166019492637,
          9.30147058823525,
          6.213235294119125,
          6.250000000002931,
          3.1250000000014655,
          0.0,
          0.0,
          0.0,
          0.0,
          0.0,
          0.0,
          0.0,
          0.0,
          0.0,
          0.0,
          0.0,
          0.0,
          3.1250000000014655,
          9.670500985183239,
          20.774575396840284,
          29.45706522055267,
          24.01483242805049,
          13.154265855896703,
          4.3674242367403755
        ],
        "accelerations": [
          0.0,
          0.0,
          0.0,
          0.0,
          0.0,
          0.0,
          0.0,
          0.0,
          0.0,
          0.0,
          0.0,
          0.0,
          0.0,
          0.0,
          0.0,
          0.0,
          0.0,
          0.0,
          0.0,
          0.0,
          560.6617647063638,
          1735.0782642603522,
          1432.66027075949,
          -384.76652335948665,
          -1179.1738754323028,
          -813.0600337336986,
          -226.5267020679936,
          642.2537060747254,
          1702.259948096882,
          2028.7824557161098,
          1712.353720943458,
          1351.88208515127,
          699.0465126329809,
          -253.89336883047145,
          -944.9769789708139,
          -2006.1578424765262,
          -3088.3775981095114,
          -2342.1093835068687,
          -599.7693194926416,
          0.0,
          0.0,
          0.0,
          0.0,
          0.0,
          0.0,
          360.9625668449205,
          1928.4933433600713,
          3349.090064498431,
          2523.9470003236383,
          328.44939446366834,
          -93.57836582752134,
          1541.4528575138056,
          1156.3277920255805,
          -2013.1409065029948,
          -3312.1993468055907,
          -1907.185739315895,
          -992.3780740949919,
          -1123.505763495128,
          -812.2394857919016,
          -330.4685507462724,
          -86.8942998320627,
          -87.94284759355685,
          -183.82352941185076,
          -89.12655971483584,
          0.0,
          0.0,
          0.0,
          0.0,
          0.0,
          0.0,
          0.0,
          0.0,
          0.0,
          0.0,
          91.91176470586714,
          299.8718565863277,
          527.4390412324387,
          581.957771628513,
          72.40553897473399,
          -484.9721835455123,
          -577.8649468032388,
          -516.8730364209566
        ],
        "timestamps": [
          13.0,
          30.0,
          47.0,
          63.0,
          80.0,
          97.0,
          113.0,
          131.0,
          147.0,
          163.00000000000728,
          180.0,
          196.0,
          213.0,
          230.0,
          246.0,
          263.0,
          279.0000000000073,
          296.0,
          313.0,
          329.0,
          346.0000000000073,
          363.0,
          379.0,
          396.0,
          413.0000000000073,
          430.0,
          447.0,
          463.0,
          480.0,
          497.0,
          513.0,
          530.0,
          547.0,
          564.0,
          580.0,
          597.0,
          614.0,
          630.0,
          647.0,
          663.0000000000073,
          679.0,
          697.0,
          713.0,
          730.0,
          747.0,
          763.0,
          780.0,
          796.0,
          813.0,
          830.0,
          847.0,
          864.0,
          880.0,
          897.0,
          914.0,
          930.0,
          947.0,
          964.0,
          980.0,
          997.0,
          1014.0000000000073,
          1030.0,
          1047.0,
          1064.0,
          1080.0,
          1097.0,
          1114.0,
          1130.0,
          1147.0,
          1164.0,
          1180.0,
          1197.0,
          1215.0000000000073,
          1230.0,
          1247.0,
          1264.0000000000073,
          1280.0,
          1297.0,
          1314.0,
          1330.0,
          1347.0,
          1364.0
        ]
      },
      "is_valid": true,
      "quality_score": 0.7833364226802059,
      "issues": []
    }
  ]
}