{
  "participant_info": {
    "total_trials": 6,
    "valid_trials": 4,
    "high_quality_trials": 0,
    "mean_quality_score": 0.6996441176470588
  },
  "trial_results": [
    {
      "trial_number": 1,
      "metrics": {
        "reaction_time": 95.0,
        "movement_time": 2264.0,
        "peak_velocity": 1398.522416829782,
        "time_to_peak_velocity": 1311.0,
        "path_length": 342.65110986995586,
        "directness_ratio": 0.44838374452572427,
        "movement_units": 6,
        "corrective_movements": 16,
        "mean_velocity": 112.77671482099701,
        "velocity_peaks": [
          6,
          50,
          65,
          93,
          105,
          109
        ],
        "velocities": [
          16.666666666666668,
          33.333333333333336,
          16.666666666666668,
          14.705882352941176,
          44.11764705882353,
          59.74264705882353,
          60.66176470588235,
          45.03676470588235,
          30.330882352941174,
          31.25,
          15.625,
          0.0,
          0.0,
          0.0,
          0.0,
          0.0,
          0.0,
          0.0,
          0.0,
          0.0,
          0.0,
          0.0,
          0.0,
          0.0,
          0.0,
          0.0,
          0.0,
          0.0,
          0.0,
          0.0,
          0.0,
          0.0,
          0.0,
          0.0,
          0.0,
          0.0,
          0.0,
          0.0,
          0.0,
          0.0,
          0.0,
          0.0,
          0.0,
          0.0,
          0.0,
          82.20838152572756,
          259.4599275873648,
          497.2514538442874,
          812.4135692891359,
          1231.3770368803896,
          1269.2933618998275,
          750.9182218200411,
          476.10294117647055,
          363.9705882352941,
          138.78676470588235,
          45.955882352941174,
          31.25,
          31.25,
          15.625,
          0.0,
          20.797258270192575,
          57.21951654038515,
          84.9306108804836,
          123.00062180174494,
          276.9704067255387,
          481.90997243257357,
          471.52386060876154,
          339.2483236467226,
          250.20513118055942,
          154.56786722855486,
          73.61612089652488,
          37.72208691207961,
          31.25,
          35.266855032959654,
          39.283710065919315,
          40.43911330315223,
          41.59451654038515,
          20.797258270192575,
          0.0,
          0.0,
          0.0,
          0.0,
          0.0,
          0.0,
          0.0,
          0.0,
          0.0,
          0.0,
          0.0,
          0.0,
          17.857142857142858,
          373.94957983193274,
          1091.6587924485043,
          1398.522416829782,
          1039.6921724671786,
          612.8472222222222,
          390.52287581699346,
          183.8235294117647,
          29.41176470588235,
          0.0,
          91.10862335695782,
          275.3867457764069,
          351.0745076536843,
          376.00480754263924,
          504.13431824483865,
          587.43768423823,
          551.651994120981,
          537.8907609141284,
          578.5871564021322,
          595.1271901569942,
          542.1724120010704,
          450.3475674274415,
          361.30424359594883,
          226.4863121942435,
          103.91466790743007,
          54.908710065919315,
          19.641855032959658,
          0.0,
          0.0,
          0.0,
          0.0,
          0.0,
          0.0,
          0.0,
          0.0,
          0.0,
          0.0,
          0.0,
          0.0,
          0.0,
          0.0,
          0.0,
          0.0,
          0.0,
          0.0,
          0.0,
          0.0,
          0.0,
          0.0,
          0.0,
          0.0,
          0.0,
          0.0,
          0.0,
          0.0,
          0.0,
          0.0,
          0.0,
          0.0,
          0.0,
          0.0,
          0.0,
          0.0,
          0.0,
          0.0,
          0.0,
          0.0,
          0.0,
          0.0,
          0.0,
          0.0,
          0.0,
          0.0,
          0.0,
          0.0,
          0.0,
          0.0,
          0.0,
          0.0,
          0.0,
          0.0,
          0.0,
          0.0,
          0.0,
          0.0,
          0.0,
          0.0,
          0.0,
          0.0,
          0.0
        ],
        "accelerations": [
          1111.111111111111,
          130.71895424836583,
          -538.4729649435533,
          775.7068959491103,
          1324.6107266435986,
          475.2256016042779,
          -416.0399955436719,
          -892.0847750865056,
          -389.8263015099092,
          -459.5588235294125,
          -1239.6096380471374,
          -710.2272727272721,
          0.0,
          0.0,
          0.0,
          0.0,
          0.0,
          0.0,
          0.0,
          0.0,
          0.0,
          0.0,
          0.0,
          0.0,
          0.0,
          0.0,
          0.0,
          0.0,
          0.0,
          0.0,
          0.0,
          0.0,
          0.0,
          0.0,
          0.0,
          0.0,
          0.0,
          0.0,
          0.0,
          0.0,
          0.0,
          0.0,
          0.0,
          0.0,
          4306.153318014297,
          7537.302383015021,
          11774.3897112052,
          16644.74739774195,
          22477.934902824567,
          14570.746584096294,
          -14131.141619422004,
          -23329.130021275225,
          -11448.190936358573,
          -10032.677007968952,
          -9411.22814433259,
          -3408.292210600815,
          -419.4191045402117,
          -445.6327985739746,
          -948.7104500891259,
          161.63307094352632,
          1708.389678838566,
          1930.994249271138,
          1977.9889772873598,
          5008.64652438525,
          10657.842872249124,
          6302.215893765282,
          -4195.930846642712,
          -7001.828119718211,
          -5797.390774080401,
          -5047.624059922551,
          -3630.1166878313998,
          -1232.0973504466438,
          -76.72599622249868,
          237.9264623280842,
          143.24607202830225,
          70.15316001469887,
          -577.7016186164685,
          -1190.356612476945,
          -438.25640032972547,
          0.0,
          0.0,
          0.0,
          0.0,
          0.0,
          0.0,
          0.0,
          0.0,
          0.0,
          0.0,
          324.0860772621237,
          15043.218244235448,
          33014.600157029134,
          30134.495205818916,
          -2801.3427784296073,
          -23032.40466055884,
          -19307.37828414006,
          -14199.62157854921,
          -10419.756137749255,
          -5158.215491032829,
          2711.3071179606554,
          8707.847462870603,
          8076.202890572348,
          2841.296936007906,
          4380.3525027837895,
          6336.4335463294465,
          1661.4902074504298,
          -1463.6957516484035,
          608.6231296883907,
          1598.5274726991993,
          -1233.2533696320424,
          -4323.8737854178635,
          -5485.815596941904,
          -6711.999891503779,
          -7791.510209194002,
          -5336.88091874533,
          -3022.6718790494315,
          -2555.5627542355505,
          -1028.8590731550337,
          0.0,
          0.0,
          0.0,
          0.0,
          0.0,
          0.0,
          0.0,
          0.0,
          0.0,
          0.0,
          0.0,
          0.0,
          0.0,
          0.0,
          0.0,
          0.0,
          0.0,
          0.0,
          0.0,
          0.0,
          0.0,
          0.0,
          0.0,
          0.0,
          0.0,
          0.0,
          0.0,
          0.0,
          0.0,
          0.0,
          0.0,
          0.0,
          0.0,
          0.0,
          0.0,
          0.0,
          0.0,
          0.0,
          0.0,
          0.0,
          0.0,
          0.0,
          0.0,
          0.0,
          0.0,
          0.0,
          0.0,
          0.0,
          0.0,
          0.0,
          0.0,
          0.0,
          0.0,
          0.0,
          0.0,
          0.0,
          0.0,
          0.0,
          0.0,
          0.0,
          0.0,
          0.0
        ],
        "timestamps": [
          13.0,
          28.0,
          45.0,
          61.0,
          78.0,
          95.0,
          111.0,
          128.0,
          145.0,
          161.0,
          177.0,
          188.0,
          199.0,
          210.0,
          221.0,
          232.0,
          243.0,
          254.0,
          264.0,
          276.0,
          287.0,
          298.0,
          309.0,
          320.0,
          331.0,
          341.0,
          352.0,
          363.0,
          374.0,
          385.0,
          396.0,
          407.0,
          418.0,
          429.0,
          440.0,
          451.0,
          462.0,
          473.0,
          484.0,
          495.0,
          506.0,
          518.0,
          529.0,
          540.0,
          551.0,
          561.0,
          595.0,
          611.0,
          628.0,
          644.0,
          661.0,
          678.0,
          695.0,
          711.0,
          728.0,
          744.0,
          761.0,
          777.0,
          794.0,
          810.0,
          826.0,
          843.0,
          859.0,
          876.0,
          895.0,
          911.0,
          928.0,
          945.0,
          959.0,
          978.0,
          994.0,
          1011.0,
          1027.0,
          1043.0,
          1061.0,
          1077.0,
          1094.0,
          1111.0,
          1129.0,
          1140.0,
          1150.0,
          1161.0,
          1172.0,
          1182.0,
          1192.0,
          1202.0,
          1213.0,
          1224.0,
          1234.0,
          1244.0,
          1263.0,
          1277.0,
          1294.0,
          1311.0,
          1327.0,
          1345.0,
          1359.0,
          1376.0,
          1394.0,
          1413.0,
          1428.0,
          1444.0,
          1462.0,
          1476.0,
          1493.0,
          1509.0,
          1526.0,
          1542.0,
          1560.0,
          1577.0,
          1593.0,
          1610.0,
          1626.0,
          1643.0,
          1659.0,
          1677.0,
          1688.0,
          1698.0,
          1709.0,
          1719.0,
          1730.0,
          1741.0,
          1751.0,
          1763.0,
          1773.0,
          1784.0,
          1794.0,
          1804.0,
          1815.0,
          1826.0,
          1837.0,
          1847.0,
          1858.0,
          1868.0,
          1880.0,
          1890.0,
          1900.0,
          1911.0,
          1922.0,
          1932.0,
          1943.0,
          1953.0,
          1964.0,
          1976.0,
          1986.0,
          1996.0,
          2007.0,
          2017.0,
          2028.0,
          2038.0,
          2049.0,
          2060.0,
          2070.0,
          2080.0,
          2091.0,
          2101.0,
          2112.0,
          2123.0,
          2133.0,
          2144.0,
          2154.0,
          2164.0,
          2176.0,
          2186.0,
          2196.0,
          2207.0,
          2218.0,
          2229.0,
          2240.0,
          2250.0,
          2261.0,
          2272.0,
          2282.0,
          2293.0,
          2304.0,
          2315.0,
          2326.0,
          2337.0,
          2348.0,
          2359.0
        ]
      },
      "is_valid": false,
      "quality_score": 0.0,
      "issues": [
        "Reaction time too fast: 95.0ms",
        "Path too indirect: 0.448"
      ]
    },
    {
      "trial_number": 2,
      "metrics": {
        "reaction_time": 376.0,
        "movement_time": 1196.0,
        "peak_velocity": 1551.593137254902,
        "time_to_peak_velocity": 458.0,
        "path_length": 147.71959868970777,
        "directness_ratio": 0.9953358278948423,
        "movement_units": 3,
        "corrective_movements": 8,
        "mean_velocity": 67.70403422309828,
        "velocity_peaks": [
          37,
          44,
          49
        ],
        "velocities": [
          0.0,
          0.0,
          0.0,
          0.0,
          0.0,
          0.0,
          0.0,
          0.0,
          0.0,
          0.0,
          0.0,
          0.0,
          0.0,
          0.0,
          0.0,
          0.0,
          0.0,
          0.0,
          0.0,
          0.0,
          0.0,
          0.0,
          0.0,
          0.0,
          0.0,
          0.0,
          0.0,
          0.0,
          0.0,
          0.0,
          0.0,
          0.0,
          0.0,
          80.88235294117646,
          279.4117647058823,
          582.8431372549019,
          1197.8553921568628,
          1551.593137254902,
          1106.3102143940043,
          639.0910170233028,
          423.4058026292984,
          240.80882352941174,
          161.76470588235293,
          152.58562097196364,
          155.66143802235865,
          147.6836601876499,
          164.91372147870732,
          213.8143710619898,
          269.2846365113871,
          276.38888888888886,
          240.453015749538,
          224.65603149907597,
          175.41970169316232,
          112.64170522058205,
          80.8000192769577,
          48.958333333333336,
          16.666666666666668,
          16.666666666666668,
          33.333333333333336,
          16.666666666666668,
          0.0,
          13.88888888888889,
          27.77777777777778,
          13.88888888888889,
          0.0,
          0.0,
          0.0,
          0.0,
          0.0,
          0.0,
          0.0,
          0.0,
          0.0,
          0.0,
          0.0,
          0.0,
          0.0,
          0.0,
          0.0,
          0.0,
          0.0,
          0.0,
          0.0,
          0.0,
          0.0,
          0.0,
          0.0,
          0.0,
          0.0,
          0.0,
          0.0,
          0.0,
          0.0,
          0.0,
          0.0,
          0.0,
          0.0,
          0.0,
          0.0,
          0.0,
          0.0,
          0.0,
          0.0,
          0.0,
          0.0,
          0.0,
          0.0,
          0.0,
          0.0,
          0.0,
          0.0,
          0.0,
          0.0,
          0.0,
          0.0,
          0.0,
          0.0,
          0.0,
          0.0,
          0.0,
          0.0,
          0.0,
          0.0,
          0.0,
          0.0,
          0.0,
          0.0,
          0.0
        ],
        "accelerations": [
          0.0,
          0.0,
          0.0,
          0.0,
          0.0,
          0.0,
          0.0,
          0.0,
          0.0,
          0.0,
          0.0,
          0.0,
          0.0,
          0.0,
          0.0,
          0.0,
          0.0,
          0.0,
          0.0,
          0.0,
          0.0,
          0.0,
          0.0,
          0.0,
          0.0,
          0.0,
          0.0,
          0.0,
          0.0,
          0.0,
          0.0,
          0.0,
          3676.47058823529,
          6982.891195693959,
          13845.636293733165,
          30148.35790321028,
          31859.42606209148,
          -1310.407744993001,
          -26838.297653870584,
          -20269.735014122856,
          -12152.167291604073,
          -7695.326374910154,
          -2594.80007521906,
          -162.76009464076196,
          -106.79599687065229,
          305.9721815193061,
          2065.8626804901187,
          3068.2392177317392,
          1685.270192540469,
          -1021.6568197225697,
          -1705.5904705531048,
          -2050.596149253108,
          -3375.720411195361,
          -2815.6655898716544,
          -2058.5821154413043,
          -2018.1215977582633,
          -976.8907563025203,
          606.0606060606056,
          185.18518518517942,
          -953.9371304077206,
          32.339324618736384,
          855.7800224466882,
          -491.02132435465717,
          -1328.7638287638276,
          -757.5757575757569,
          0.0,
          0.0,
          0.0,
          0.0,
          0.0,
          0.0,
          0.0,
          0.0,
          0.0,
          0.0,
          0.0,
          0.0,
          0.0,
          0.0,
          0.0,
          0.0,
          0.0,
          0.0,
          0.0,
          0.0,
          0.0,
          0.0,
          0.0,
          0.0,
          0.0,
          0.0,
          0.0,
          0.0,
          0.0,
          0.0,
          0.0,
          0.0,
          0.0,
          0.0,
          0.0,
          0.0,
          0.0,
          0.0,
          0.0,
          0.0,
          0.0,
          0.0,
          0.0,
          0.0,
          0.0,
          0.0,
          0.0,
          0.0,
          0.0,
          0.0,
          0.0,
          0.0,
          0.0,
          0.0,
          0.0,
          0.0,
          0.0,
          0.0,
          0.0,
          0.0,
          0.0,
          0.0,
          0.0
        ],
        "timestamps": [
          13.0,
          24.0,
          35.0,
          46.0,
          57.0,
          68.0,
          79.0,
          90.0,
          101.0,
          112.0,
          123.0,
          134.0,
          145.0,
          156.0,
          167.0,
          178.0,
          189.0,
          200.0,
          211.0,
          222.0,
          233.0,
          244.0,
          255.0,
          266.0,
          277.0,
          288.0,
          299.0,
          310.0,
          321.0,
          332.0,
          343.0,
          354.0,
          365.0,
          376.0,
          410.0,
          427.0,
          442.0,
          458.0,
          475.0,
          492.0,
          508.0,
          525.0,
          542.0,
          559.0,
          575.0,
          593.0,
          610.0,
          626.0,
          644.0,
          660.0,
          675.0,
          694.0,
          710.0,
          727.0,
          743.0,
          758.0,
          775.0,
          793.0,
          808.0,
          826.0,
          843.0,
          858.0,
          876.0,
          887.0,
          897.0,
          909.0,
          919.0,
          930.0,
          941.0,
          951.0,
          962.0,
          973.0,
          983.0,
          994.0,
          1004.0,
          1014.0,
          1025.0,
          1036.0,
          1047.0,
          1058.0,
          1069.0,
          1080.0,
          1090.0,
          1101.0,
          1111.0,
          1122.0,
          1132.0,
          1143.0,
          1154.0,
          1164.0,
          1175.0,
          1186.0,
          1197.0,
          1208.0,
          1218.0,
          1229.0,
          1240.0,
          1250.0,
          1262.0,
          1272.0,
          1283.0,
          1294.0,
          1305.0,
          1315.0,
          1326.0,
          1336.0,
          1346.0,
          1358.0,
          1368.0,
          1379.0,
          1390.0,
          1401.0,
          1412.0,
          1423.0,
          1433.0,
          1444.0,
          1455.0,
          1465.0,
          1476.0,
          1487.0,
          1497.0,
          1508.0,
          1518.0,
          1530.0,
          1540.0,
          1550.0,
          1561.0,
          1572.0
        ]
      },
      "is_valid": true,
      "quality_score": 0.8202352941176471,
      "issues": []
    },
    {
      "trial_number": 3,
      "metrics": {
        "reaction_time": 45.0,
        "movement_time": 1315.0,
        "peak_velocity": 1600.1190079160147,
        "time_to_peak_velocity": 512.0,
        "path_length": 153.23064090312852,
        "directness_ratio": 0.9359906874313021,
        "movement_units": 2,
        "corrective_movements": 10,
        "mean_velocity": 82.6598770620311,
        "velocity_peaks": [
          2,
          36
        ],
        "velocities": [
          16.666666666666668,
          48.958333333333336,
          62.622549019607845,
          59.74264705882352,
          44.11764705882353,
          30.330882352941174,
          31.25,
          15.625,
          14.705882352941176,
          29.41176470588235,
          28.594771241830067,
          27.77777777777778,
          13.88888888888889,
          0.0,
          0.0,
          0.0,
          0.0,
          0.0,
          0.0,
          0.0,
          0.0,
          0.0,
          0.0,
          0.0,
          0.0,
          0.0,
          0.0,
          0.0,
          0.0,
          0.0,
          0.0,
          0.0,
          80.64516129032258,
          264.2314990512334,
          693.0778839583018,
          1328.8557055600231,
          1600.1190079160147,
          1352.4209826335182,
          1055.189703219784,
          904.8124559001108,
          621.6028089556245,
          288.54921631280894,
          117.6470588235294,
          44.11764705882353,
          29.41176470588235,
          14.705882352941176,
          0.0,
          0.0,
          0.0,
          13.157894736842106,
          26.315789473684212,
          13.157894736842106,
          0.0,
          13.88888888888889,
          27.77777777777778,
          13.88888888888889,
          0.0,
          0.0,
          0.0,
          0.0,
          0.0,
          0.0,
          0.0,
          0.0,
          0.0,
          0.0,
          0.0,
          0.0,
          0.0,
          0.0,
          0.0,
          0.0,
          0.0,
          0.0,
          0.0,
          0.0,
          0.0,
          0.0,
          0.0,
          0.0,
          0.0,
          0.0,
          0.0,
          0.0,
          0.0,
          0.0,
          0.0,
          0.0,
          0.0,
          0.0,
          0.0,
          0.0,
          0.0,
          0.0,
          0.0,
          0.0,
          0.0,
          0.0,
          0.0,
          0.0,
          0.0,
          0.0,
          0.0,
          0.0,
          0.0,
          0.0,
          0.0,
          0.0
        ],
        "accelerations": [
          2152.777777777778,
          1524.3434403331223,
          357.81009707804674,
          -544.2618223760094,
          -865.0519031141866,
          -363.6126074761453,
          -416.03999554367186,
          -475.2256016042778,
          389.8263015099079,
          376.55789439958926,
          -50.34000132039364,
          -408.4967320261443,
          -1168.430335097001,
          -727.513227513227,
          0.0,
          0.0,
          0.0,
          0.0,
          0.0,
          0.0,
          0.0,
          0.0,
          0.0,
          0.0,
          0.0,
          0.0,
          0.0,
          0.0,
          0.0,
          0.0,
          0.0,
          3665.6891495601135,
          6962.292059005036,
          18389.38280789837,
          32701.032194642037,
          28206.684029192416,
          693.0963845145598,
          -16634.41780558024,
          -13858.78064443019,
          -13407.326568715845,
          -18617.34711269137,
          -14822.227945061606,
          -7241.63907277802,
          -2786.8433469644515,
          -1151.530130768884,
          -1406.9264069264054,
          -770.308123249299,
          0.0,
          150.37593984962507,
          620.7504406950393,
          -129.84764542936279,
          -850.6649688737966,
          -32.71788341822298,
          822.6670297748722,
          -491.02132435465717,
          -1328.763828763836,
          -727.5132275132389,
          0.0,
          0.0,
          0.0,
          0.0,
          0.0,
          0.0,
          0.0,
          0.0,
          0.0,
          0.0,
          0.0,
          0.0,
          0.0,
          0.0,
          0.0,
          0.0,
          0.0,
          0.0,
          0.0,
          0.0,
          0.0,
          0.0,
          0.0,
          0.0,
          0.0,
          0.0,
          0.0,
          0.0,
          0.0,
          0.0,
          0.0,
          0.0,
          0.0,
          0.0,
          0.0,
          0.0,
          0.0,
          0.0,
          0.0,
          0.0,
          0.0,
          0.0,
          0.0,
          0.0,
          0.0,
          0.0,
          0.0,
          0.0,
          0.0,
          0.0,
          0.0
        ],
        "timestamps": [
          14.0,
          29.0,
          45.0,
          62.0,
          79.0,
          96.0,
          112.0,
          129.0,
          145.0,
          162.0,
          177.0,
          195.0,
          213.0,
          223.0,
          234.0,
          245.0,
          256.0,
          267.0,
          278.0,
          289.0,
          300.0,
          311.0,
          322.0,
          332.0,
          343.0,
          354.0,
          365.0,
          376.0,
          387.0,
          398.0,
          409.0,
          420.0,
          431.0,
          462.0,
          479.0,
          495.0,
          512.0,
          529.0,
          545.0,
          562.0,
          578.0,
          595.0,
          612.0,
          628.0,
          645.0,
          656.0,
          666.0,
          677.0,
          687.0,
          712.0,
          731.0,
          747.0,
          762.0,
          778.0,
          796.0,
          807.0,
          817.0,
          828.0,
          838.0,
          849.0,
          860.0,
          871.0,
          882.0,
          892.0,
          902.0,
          914.0,
          924.0,
          935.0,
          945.0,
          956.0,
          966.0,
          977.0,
          988.0,
          999.0,
          1009.0,
          1020.0,
          1030.0,
          1041.0,
          1051.0,
          1063.0,
          1073.0,
          1083.0,
          1095.0,
          1105.0,
          1115.0,
          1126.0,
          1137.0,
          1148.0,
          1159.0,
          1169.0,
          1180.0,
          1190.0,
          1201.0,
          1212.0,
          1222.0,
          1233.0,
          1243.0,
          1254.0,
          1264.0,
          1276.0,
          1286.0,
          1297.0,
          1308.0,
          1318.0,
          1328.0,
          1339.0,
          1349.0,
          1360.0
        ]
      },
      "is_valid": false,
      "quality_score": 0.0,
      "issues": [
        "Reaction time too fast: 45.0ms"
      ]
    },
    {
      "trial_number": 4,
      "metrics": {
        "reaction_time": 543.0,
        "movement_time": 2074.0,
        "peak_velocity": 1295.1593137254904,
        "time_to_peak_velocity": 627.0,
        "path_length": 130.81255920004128,
        "directness_ratio": 0.9866178094336983,
        "movement_units": 2,
        "corrective_movements": 6,
        "mean_velocity": 34.22095396490772,
        "velocity_peaks": [
          51,
          64
        ],
        "velocities": [
          0.0,
          0.0,
          0.0,
          0.0,
          0.0,
          0.0,
          0.0,
          0.0,
          0.0,
          0.0,
          0.0,
          0.0,
          0.0,
          0.0,
          0.0,
          0.0,
          0.0,
          0.0,
          0.0,
          0.0,
          0.0,
          0.0,
          0.0,
          0.0,
          0.0,
          0.0,
          0.0,
          0.0,
          0.0,
          0.0,
          0.0,
          0.0,
          0.0,
          0.0,
          0.0,
          0.0,
          0.0,
          0.0,
          0.0,
          0.0,
          0.0,
          0.0,
          0.0,
          0.0,
          0.0,
          40.32258064516129,
          122.31182795698925,
          456.98924731182797,
          848.9583333333334,
          908.7009803921569,
          1112.1936274509803,
          1295.1593137254904,
          940.3186274509804,
          484.375,
          266.54411764705884,
          136.02941176470588,
          52.04725827019257,
          41.59451654038515,
          20.797258270192575,
          14.705882352941176,
          62.295117316173375,
          95.1784699264644,
          121.11864672793808,
          210.47794117647058,
          261.57761264953496,
          171.13316647554058,
          46.50408323777028,
          0.0,
          0.0,
          0.0,
          0.0,
          0.0,
          0.0,
          14.705882352941176,
          29.41176470588235,
          14.705882352941176,
          0.0,
          0.0,
          0.0,
          0.0,
          0.0,
          0.0,
          0.0,
          0.0,
          0.0,
          0.0,
          0.0,
          0.0,
          0.0,
          0.0,
          0.0,
          0.0,
          0.0,
          0.0,
          0.0,
          0.0,
          0.0,
          0.0,
          0.0,
          0.0,
          0.0,
          0.0,
          0.0,
          0.0,
          0.0,
          0.0,
          0.0,
          0.0,
          0.0,
          0.0,
          0.0,
          0.0,
          0.0,
          0.0,
          0.0,
          0.0,
          0.0,
          0.0,
          0.0,
          0.0,
          0.0,
          0.0,
          0.0,
          0.0,
          0.0,
          0.0,
          0.0,
          0.0,
          0.0,
          0.0,
          0.0,
          0.0,
          0.0,
          0.0,
          0.0,
          0.0,
          0.0,
          0.0,
          0.0,
          0.0,
          0.0,
          0.0,
          0.0,
          0.0,
          0.0,
          0.0,
          0.0,
          0.0,
          0.0,
          0.0,
          0.0,
          0.0,
          0.0,
          0.0,
          0.0,
          0.0,
          0.0,
          0.0,
          0.0,
          0.0,
          0.0,
          0.0,
          0.0,
          0.0,
          0.0,
          0.0,
          0.0,
          0.0,
          0.0,
          0.0,
          0.0,
          0.0,
          0.0,
          0.0,
          0.0,
          0.0,
          0.0,
          0.0,
          0.0,
          0.0,
          0.0,
          0.0,
          0.0,
          0.0,
          0.0,
          0.0,
          0.0,
          0.0,
          0.0,
          0.0,
          0.0,
          0.0,
          0.0,
          0.0,
          0.0,
          0.0,
          0.0,
          0.0,
          0.0,
          0.0,
          0.0,
          0.0,
          0.0,
          0.0,
          0.0,
          0.0,
          0.0,
          0.0,
          0.0,
          0.0,
          0.0,
          0.0,
          0.0,
          0.0,
          0.0,
          0.0,
          0.0,
          0.0,
          0.0,
          0.0,
          0.0,
          0.0,
          0.0,
          0.0,
          0.0,
          0.0,
          0.0
        ],
        "accelerations": [
          0.0,
          0.0,
          0.0,
          0.0,
          0.0,
          0.0,
          0.0,
          0.0,
          0.0,
          0.0,
          0.0,
          0.0,
          0.0,
          0.0,
          0.0,
          0.0,
          0.0,
          0.0,
          0.0,
          0.0,
          0.0,
          0.0,
          0.0,
          0.0,
          0.0,
          0.0,
          0.0,
          0.0,
          0.0,
          0.0,
          0.0,
          0.0,
          0.0,
          0.0,
          0.0,
          0.0,
          0.0,
          0.0,
          0.0,
          0.0,
          0.0,
          0.0,
          0.0,
          0.0,
          1832.8445747800567,
          3398.317199045604,
          12734.60303302728,
          20184.625149342944,
          12224.336567459657,
          7727.24405604487,
          12091.04521097654,
          -4435.475635146522,
          -24428.534643581123,
          -19816.89734717415,
          -10414.823516304928,
          -6597.390964192922,
          -2777.496918362372,
          -1537.185580188756,
          -1542.6909749210845,
          1533.4165290970868,
          2366.840810985975,
          1730.1038062283722,
          3391.160919117849,
          4193.826251619883,
          -934.266172552022,
          -8968.980718634242,
          -7831.126578158968,
          -2435.9281695974887,
          0.0,
          0.0,
          0.0,
          0.0,
          711.0536522301209,
          1015.8814657084544,
          129.75778546712786,
          -1123.4259099534333,
          -636.6182836771164,
          0.0,
          0.0,
          0.0,
          0.0,
          0.0,
          0.0,
          0.0,
          0.0,
          0.0,
          0.0,
          0.0,
          0.0,
          0.0,
          0.0,
          0.0,
          0.0,
          0.0,
          0.0,
          0.0,
          0.0,
          0.0,
          0.0,
          0.0,
          0.0,
          0.0,
          0.0,
          0.0,
          0.0,
          0.0,
          0.0,
          0.0,
          0.0,
          0.0,
          0.0,
          0.0,
          0.0,
          0.0,
          0.0,
          0.0,
          0.0,
          0.0,
          0.0,
          0.0,
          0.0,
          0.0,
          0.0,
          0.0,
          0.0,
          0.0,
          0.0,
          0.0,
          0.0,
          0.0,
          0.0,
          0.0,
          0.0,
          0.0,
          0.0,
          0.0,
          0.0,
          0.0,
          0.0,
          0.0,
          0.0,
          0.0,
          0.0,
          0.0,
          0.0,
          0.0,
          0.0,
          0.0,
          0.0,
          0.0,
          0.0,
          0.0,
          0.0,
          0.0,
          0.0,
          0.0,
          0.0,
          0.0,
          0.0,
          0.0,
          0.0,
          0.0,
          0.0,
          0.0,
          0.0,
          0.0,
          0.0,
          0.0,
          0.0,
          0.0,
          0.0,
          0.0,
          0.0,
          0.0,
          0.0,
          0.0,
          0.0,
          0.0,
          0.0,
          0.0,
          0.0,
          0.0,
          0.0,
          0.0,
          0.0,
          0.0,
          0.0,
          0.0,
          0.0,
          0.0,
          0.0,
          0.0,
          0.0,
          0.0,
          0.0,
          0.0,
          0.0,
          0.0,
          0.0,
          0.0,
          0.0,
          0.0,
          0.0,
          0.0,
          0.0,
          0.0,
          0.0,
          0.0,
          0.0,
          0.0,
          0.0,
          0.0,
          0.0,
          0.0,
          0.0,
          0.0,
          0.0,
          0.0,
          0.0,
          0.0,
          0.0,
          0.0,
          0.0,
          0.0,
          0.0,
          0.0,
          0.0
        ],
        "timestamps": [
          13.0,
          28.0,
          39.0,
          50.0,
          61.0,
          72.0,
          83.0,
          94.0,
          105.0,
          116.0,
          127.0,
          138.0,
          150.0,
          160.0,
          171.0,
          182.0,
          193.0,
          204.0,
          215.0,
          226.0,
          237.0,
          248.0,
          259.0,
          270.0,
          281.0,
          292.0,
          303.0,
          314.0,
          325.0,
          336.0,
          347.0,
          358.0,
          370.0,
          381.0,
          392.0,
          403.0,
          413.0,
          424.0,
          435.0,
          446.0,
          457.0,
          468.0,
          479.0,
          490.0,
          501.0,
          512.0,
          543.0,
          561.0,
          579.0,
          595.0,
          612.0,
          627.0,
          643.0,
          660.0,
          677.0,
          693.0,
          710.0,
          727.0,
          737.0,
          761.0,
          778.0,
          795.0,
          812.0,
          829.0,
          845.0,
          862.0,
          873.0,
          883.0,
          894.0,
          904.0,
          915.0,
          926.0,
          948.0,
          961.0,
          978.0,
          998.0,
          1009.0,
          1019.0,
          1030.0,
          1041.0,
          1051.0,
          1062.0,
          1073.0,
          1083.0,
          1094.0,
          1104.0,
          1115.0,
          1126.0,
          1136.0,
          1147.0,
          1158.0,
          1168.0,
          1179.0,
          1189.0,
          1199.0,
          1210.0,
          1221.0,
          1232.0,
          1243.0,
          1253.0,
          1264.0,
          1275.0,
          1285.0,
          1296.0,
          1307.0,
          1317.0,
          1328.0,
          1339.0,
          1350.0,
          1361.0,
          1371.0,
          1382.0,
          1394.0,
          1404.0,
          1415.0,
          1426.0,
          1436.0,
          1447.0,
          1459.0,
          1469.0,
          1480.0,
          1491.0,
          1501.0,
          1512.0,
          1523.0,
          1533.0,
          1544.0,
          1555.0,
          1565.0,
          1576.0,
          1587.0,
          1598.0,
          1609.0,
          1619.0,
          1630.0,
          1641.0,
          1652.0,
          1663.0,
          1674.0,
          1684.0,
          1694.0,
          1705.0,
          1715.0,
          1726.0,
          1737.0,
          1748.0,
          1759.0,
          1769.0,
          1780.0,
          1791.0,
          1802.0,
          1813.0,
          1824.0,
          1834.0,
          1845.0,
          1856.0,
          1866.0,
          1877.0,
          1888.0,
          1898.0,
          1909.0,
          1919.0,
          1930.0,
          1941.0,
          1952.0,
          1963.0,
          1974.0,
          1984.0,
          1995.0,
          2006.0,
          2016.0,
          2027.0,
          2037.0,
          2048.0,
          2060.0,
          2070.0,
          2081.0,
          2092.0,
          2103.0,
          2114.0,
          2125.0,
          2135.0,
          2146.0,
          2156.0,
          2167.0,
          2178.0,
          2188.0,
          2199.0,
          2210.0,
          2221.0,
          2232.0,
          2243.0,
          2253.0,
          2264.0,
          2275.0,
          2285.0,
          2296.0,
          2307.0,
          2318.0,
          2329.0,
          2340.0,
          2350.0,
          2361.0,
          2371.0,
          2382.0,
          2393.0,
          2403.0,
          2414.0,
          2425.0,
          2436.0,
          2447.0,
          2458.0,
          2468.0,
          2479.0,
          2490.0,
          2500.0,
          2510.0,
          2521.0,
          2531.0,
          2543.0,
          2553.0,
          2564.0,
          2574.0,
          2585.0,
          2596.0,
          2607.0,
          2617.0
        ]
      },
      "is_valid": true,
      "quality_score": 0.6464941176470588,
      "issues": []
    },
    {
      "trial_number": 5,
      "metrics": {
        "reaction_time": 381.0,
        "movement_time": 97.0,
        "peak_velocity": 2108.920674093974,
        "time_to_peak_velocity": 444.0,
        "path_length": 160.12943567968497,
        "directness_ratio": 0.9979614494247343,
        "movement_units": 1,
        "corrective_movements": 1,
        "mean_velocity": 234.24221883856734,
        "velocity_peaks": [
          36
        ],
        "velocities": [
          0.0,
          0.0,
          0.0,
          0.0,
          0.0,
          0.0,
          0.0,
          0.0,
          0.0,
          0.0,
          0.0,
          0.0,
          0.0,
          0.0,
          0.0,
          0.0,
          0.0,
          0.0,
          0.0,
          0.0,
          0.0,
          0.0,
          0.0,
          0.0,
          0.0,
          0.0,
          0.0,
          0.0,
          0.0,
          0.0,
          0.0,
          46.2962962962963,
          227.2079772079772,
          586.8407421287272,
          1127.0798139493095,
          1690.9192856176787,
          2108.920674093974,
          2081.9022374270085,
          1266.2795079831558
        ],
        "accelerations": [
          0.0,
          0.0,
          0.0,
          0.0,
          0.0,
          0.0,
          0.0,
          0.0,
          0.0,
          0.0,
          0.0,
          0.0,
          0.0,
          0.0,
          0.0,
          0.0,
          0.0,
          0.0,
          0.0,
          0.0,
          0.0,
          0.0,
          0.0,
          0.0,
          0.0,
          0.0,
          0.0,
          0.0,
          0.0,
          0.0,
          1753.6475869809315,
          4732.611748281269,
          20850.880320605458,
          31541.717077810878,
          33883.42765378812,
          27860.136057747724,
          11499.49858262734,
          -24783.56370914181,
          -47977.80761434439
        ],
        "timestamps": [
          13.0,
          24.0,
          35.0,
          46.0,
          56.0,
          67.0,
          78.0,
          89.0,
          100.0,
          111.0,
          122.0,
          133.0,
          144.0,
          155.0,
          166.0,
          177.0,
          188.0,
          199.0,
          210.0,
          221.0,
          233.0,
          244.0,
          254.0,
          265.0,
          276.0,
          287.0,
          298.0,
          310.0,
          321.0,
          332.0,
          342.0,
          354.0,
          381.0,
          394.0,
          409.0,
          427.0,
          444.0,
          461.0,
          478.0
        ]
      },
      "is_valid": false,
      "quality_score": 0.0,
      "issues": [
        "Movement time too fast: 97.0ms"
      ]
    },
    {
      "trial_number": 6,
      "metrics": {
        "reaction_time": 298.0,
        "movement_time": 2643.0,
        "peak_velocity": 987.1323529411765,
        "time_to_peak_velocity": 360.0,
        "path_length": 160.5443781745313,
        "directness_ratio": 0.9718736044293482,
        "movement_units": 4,
        "corrective_movements": 10,
        "mean_velocity": 38.7812525211558,
        "velocity_peaks": [
          29,
          42,
          50,
          104
        ],
        "velocities": [
          0.0,
          0.0,
          0.0,
          0.0,
          0.0,
          0.0,
          0.0,
          0.0,
          0.0,
          0.0,
          0.0,
          0.0,
          0.0,
          0.0,
          0.0,
          0.0,
          0.0,
          0.0,
          0.0,
          0.0,
          0.0,
          0.0,
          0.0,
          0.0,
          20.0,
          108.18181818181819,
          274.78468899521533,
          555.023923444976,
          884.046052631579,
          987.1323529411765,
          883.2720588235294,
          742.6470588235294,
          553.1045751633987,
          381.94444444444446,
          266.33986928104576,
          172.8323810297267,
          117.72358558886509,
          94.8095052127332,
          88.43954248366013,
          111.3274510373231,
          132.37712429686843,
          150.46137502290463,
          166.70739045482318,
          146.78490443466933,
          128.70065370863313,
          114.55934983039148,
          102.2562812462675,
          98.00314062313375,
          75.36764705882352,
          73.52941176470588,
          94.32667003489846,
          90.64813627922716,
          76.74763500277857,
          52.975188366293,
          16.666666666666668,
          0.0,
          0.0,
          0.0,
          0.0,
          0.0,
          0.0,
          0.0,
          0.0,
          0.0,
          0.0,
          0.0,
          0.0,
          0.0,
          0.0,
          0.0,
          0.0,
          0.0,
          0.0,
          0.0,
          0.0,
          0.0,
          0.0,
          0.0,
          0.0,
          0.0,
          0.0,
          0.0,
          0.0,
          0.0,
          0.0,
          0.0,
          0.0,
          0.0,
          0.0,
          0.0,
          0.0,
          0.0,
          0.0,
          0.0,
          0.0,
          0.0,
          0.0,
          0.0,
          21.73913043478261,
          102.30179028132991,
          168.79795396419436,
          180.1470588235294,
          200.91584794365264,
          259.49445782650344,
          301.35166593969603,
          244.24037458873315,
          155.50816647554058,
          77.75408323777029,
          32.29166666666667,
          33.333333333333336,
          16.666666666666668,
          0.0,
          0.0,
          0.0,
          0.0,
          0.0,
          0.0,
          15.371886547533643,
          30.743773095067287,
          15.371886547533643,
          0.0,
          0.0,
          0.0,
          0.0,
          0.0,
          0.0,
          0.0,
          0.0,
          0.0,
          0.0,
          0.0,
          0.0,
          0.0,
          0.0,
          0.0,
          0.0,
          0.0,
          0.0,
          0.0,
          0.0,
          0.0,
          0.0,
          0.0,
          0.0,
          0.0,
          0.0,
          0.0,
          0.0,
          0.0,
          0.0,
          0.0,
          0.0,
          0.0,
          0.0,
          0.0,
          0.0,
          0.0,
          0.0,
          0.0,
          0.0,
          0.0,
          0.0,
          0.0,
          0.0,
          0.0,
          0.0,
          0.0,
          0.0,
          0.0,
          0.0,
          0.0,
          0.0,
          0.0,
          0.0,
          0.0,
          0.0,
          0.0,
          0.0,
          0.0,
          0.0,
          0.0,
          0.0,
          0.0,
          0.0,
          0.0,
          0.0,
          0.0,
          0.0,
          0.0,
          0.0,
          0.0,
          0.0,
          0.0,
          0.0,
          0.0,
          0.0,
          0.0,
          0.0,
          0.0,
          0.0,
          0.0,
          0.0,
          0.0,
          0.0,
          0.0,
          0.0,
          0.0,
          0.0,
          0.0,
          0.0,
          0.0,
          0.0,
          0.0,
          0.0,
          0.0,
          0.0,
          0.0,
          0.0,
          0.0,
          0.0,
          0.0,
          0.0,
          0.0,
          0.0,
          0.0,
          0.0,
          0.0,
          0.0,
          0.0,
          0.0,
          0.0,
          0.0,
          0.0,
          0.0,
          0.0,
          0.0,
          0.0,
          0.0,
          0.0,
          0.0,
          0.0,
          0.0,
          0.0,
          0.0,
          0.0,
          0.0,
          0.0,
          0.0
        ],
        "accelerations": [
          0.0,
          0.0,
          0.0,
          0.0,
          0.0,
          0.0,
          0.0,
          0.0,
          0.0,
          0.0,
          0.0,
          0.0,
          0.0,
          0.0,
          0.0,
          0.0,
          0.0,
          0.0,
          0.0,
          0.0,
          0.0,
          0.0,
          0.0,
          909.0909090909082,
          2340.4040404040416,
          11595.63578367405,
          15000.412078478043,
          17905.84893378784,
          13503.388421756303,
          356.9190614255858,
          -7190.743944636673,
          -10113.388789859386,
          -10746.400956896934,
          -8299.926043402103,
          -6388.9972386987365,
          -4441.216452177659,
          -2427.8572257908677,
          -865.0869533677724,
          590.7855303047481,
          1373.0494316627583,
          1222.9351245494217,
          1045.6025412651102,
          -108.13148788926628,
          -1150.4573174001607,
          -985.5751172743217,
          -777.7756606578118,
          -487.8278963481948,
          -782.5138137866606,
          -719.8155546596408,
          557.6183228257305,
          503.49189748591925,
          -486.3762657078564,
          -1215.475364469388,
          -2574.79800126589,
          -2407.9631075587704,
          -757.5757575757569,
          0.0,
          0.0,
          0.0,
          0.0,
          0.0,
          0.0,
          0.0,
          0.0,
          0.0,
          0.0,
          0.0,
          0.0,
          0.0,
          0.0,
          0.0,
          0.0,
          0.0,
          0.0,
          0.0,
          0.0,
          0.0,
          0.0,
          0.0,
          0.0,
          0.0,
          0.0,
          0.0,
          0.0,
          0.0,
          0.0,
          0.0,
          0.0,
          0.0,
          0.0,
          0.0,
          0.0,
          0.0,
          0.0,
          0.0,
          0.0,
          0.0,
          1031.1050008592688,
          2470.132741389485,
          3737.792793087422,
          2289.5667218293734,
          992.3742089689604,
          2339.3832648980924,
          2953.994646942445,
          -645.0220502953216,
          -4369.497379390119,
          -5034.132724230507,
          -3800.0566731192134,
          -1216.6669193420946,
          -972.2222222222183,
          -1540.404040404039,
          -664.2512077294715,
          0.0,
          0.0,
          0.0,
          0.0,
          848.4482834677793,
          1161.55850452185,
          -729.1013382229564,
          -1397.4442315939662,
          -665.4496340923546,
          0.0,
          0.0,
          0.0,
          0.0,
          0.0,
          0.0,
          0.0,
          0.0,
          0.0,
          0.0,
          0.0,
          0.0,
          0.0,
          0.0,
          0.0,
          0.0,
          0.0,
          0.0,
          0.0,
          0.0,
          0.0,
          0.0,
          0.0,
          0.0,
          0.0,
          0.0,
          0.0,
          0.0,
          0.0,
          0.0,
          0.0,
          0.0,
          0.0,
          0.0,
          0.0,
          0.0,
          0.0,
          0.0,
          0.0,
          0.0,
          0.0,
          0.0,
          0.0,
          0.0,
          0.0,
          0.0,
          0.0,
          0.0,
          0.0,
          0.0,
          0.0,
          0.0,
          0.0,
          0.0,
          0.0,
          0.0,
          0.0,
          0.0,
          0.0,
          0.0,
          0.0,
          0.0,
          0.0,
          0.0,
          0.0,
          0.0,
          0.0,
          0.0,
          0.0,
          0.0,
          0.0,
          0.0,
          0.0,
          0.0,
          0.0,
          0.0,
          0.0,
          0.0,
          0.0,
          0.0,
          0.0,
          0.0,
          0.0,
          0.0,
          0.0,
          0.0,
          0.0,
          0.0,
          0.0,
          0.0,
          0.0,
          0.0,
          0.0,
          0.0,
          0.0,
          0.0,
          0.0,
          0.0,
          0.0,
          0.0,
          0.0,
          0.0,
          0.0,
          0.0,
          0.0,
          0.0,
          0.0,
          0.0,
          0.0,
          0.0,
          0.0,
          0.0,
          0.0,
          0.0,
          0.0,
          0.0,
          0.0,
          0.0,
          0.0,
          0.0,
          0.0,
          0.0,
          0.0,
          0.0,
          0.0,
          0.0,
          0.0
        ],
        "timestamps": [
          13.0,
          24.0,
          34.0,
          45.0,
          55.0,
          67.0,
          77.0,
          88.0,
          99.0,
          110.0,
          121.0,
          132.0,
          143.0,
          154.0,
          164.0,
          175.0,
          186.0,
          197.0,
          207.0,
          218.0,
          229.0,
          240.0,
          251.0,
          262.0,
          273.0,
          298.0,
          309.0,
          328.0,
          344.0,
          360.0,
          377.0,
          394.0,
          410.0,
          428.0,
          444.0,
          461.0,
          477.0,
          494.0,
          512.0,
          528.0,
          544.0,
          560.0,
          577.0,
          594.0,
          610.0,
          627.0,
          644.0,
          660.0,
          677.0,
          694.0,
          711.0,
          728.0,
          746.0,
          761.0,
          772.0,
          783.0,
          794.0,
          805.0,
          816.0,
          827.0,
          838.0,
          849.0,
          860.0,
          871.0,
          882.0,
          893.0,
          904.0,
          915.0,
          926.0,
          937.0,
          948.0,
          959.0,
          970.0,
          981.0,
          991.0,
          1001.0,
          1013.0,
          1024.0,
          1034.0,
          1044.0,
          1056.0,
          1067.0,
          1078.0,
          1089.0,
          1100.0,
          1111.0,
          1122.0,
          1132.0,
          1143.0,
          1155.0,
          1166.0,
          1176.0,
          1187.0,
          1198.0,
          1209.0,
          1220.0,
          1231.0,
          1243.0,
          1254.0,
          1277.0,
          1294.0,
          1311.0,
          1327.0,
          1344.0,
          1361.0,
          1377.0,
          1394.0,
          1410.0,
          1427.0,
          1442.0,
          1452.0,
          1464.0,
          1475.0,
          1485.0,
          1496.0,
          1511.0,
          1528.0,
          1539.0,
          1562.0,
          1573.0,
          1584.0,
          1594.0,
          1605.0,
          1615.0,
          1626.0,
          1636.0,
          1647.0,
          1658.0,
          1668.0,
          1679.0,
          1690.0,
          1700.0,
          1711.0,
          1722.0,
          1732.0,
          1743.0,
          1753.0,
          1764.0,
          1776.0,
          1786.0,
          1796.0,
          1807.0,
          1818.0,
          1829.0,
          1839.0,
          1849.0,
          1860.0,
          1871.0,
          1881.0,
          1891.0,
          1902.0,
          1913.0,
          1924.0,
          1934.0,
          1945.0,
          1956.0,
          1966.0,
          1977.0,
          1988.0,
          1998.0,
          2009.0,
          2020.0,
          2030.0,
          2041.0,
          2052.0,
          2063.0,
          2074.0,
          2084.0,
          2095.0,
          2106.0,
          2116.0,
          2127.0,
          2138.0,
          2148.0,
          2159.0,
          2170.0,
          2181.0,
          2191.0,
          2202.0,
          2213.0,
          2224.0,
          2234.0,
          2245.0,
          2255.0,
          2265.0,
          2276.0,
          2287.0,
          2297.0,
          2308.0,
          2319.0,
          2330.0,
          2341.0,
          2351.0,
          2362.0,
          2373.0,
          2383.0,
          2394.0,
          2405.0,
          2415.0,
          2427.0,
          2437.0,
          2447.0,
          2458.0,
          2469.0,
          2480.0,
          2491.0,
          2501.0,
          2512.0,
          2523.0,
          2533.0,
          2544.0,
          2555.0,
          2565.0,
          2576.0,
          2587.0,
          2598.0,
          2609.0,
          2620.0,
          2630.0,
          2640.0,
          2650.0,
          2662.0,
          2672.0,
          2683.0,
          2694.0,
          2705.0,
          2715.0,
          2726.0,
          2736.0,
          2747.0,
          2758.0,
          2769.0,
          2780.0,
          2791.0,
          2802.0,
          2813.0,
          2824.0,
          2834.0,
          2845.0,
          2856.0,
          2866.0,
          2878.0,
          2888.0,
          2899.0,
          2910.0,
          2920.0,
          2931.0,
          2941.0
        ]
      },
      "is_valid": true,
      "quality_score": 0.619164705882353,
      "issues": []
    },
    {
      "trial_number": 7,
      "metrics": {
        "reaction_time": 463.0,
        "movement_time": 165.0,
        "peak_velocity": 1937.4786136378018,
        "time_to_peak_velocity": 560.0,
        "path_length": 173.11543508147207,
        "directness_ratio": 0.9895352403314871,
        "movement_units": 1,
        "corrective_movements": 1,
        "mean_velocity": 200.12132635308427,
        "velocity_peaks": [
          47
        ],
        "velocities": [
          0.0,
          0.0,
          0.0,
          0.0,
          0.0,
          0.0,
          0.0,
          0.0,
          0.0,
          0.0,
          0.0,
          0.0,
          0.0,
          0.0,
          0.0,
          0.0,
          0.0,
          0.0,
          0.0,
          0.0,
          0.0,
          0.0,
          0.0,
          0.0,
          0.0,
          0.0,
          0.0,
          0.0,
          0.0,
          0.0,
          0.0,
          0.0,
          0.0,
          0.0,
          0.0,
          0.0,
          0.0,
          0.0,
          0.0,
          0.0,
          0.0,
          52.631578947368425,
          166.07618982105186,
          416.7932678363313,
          992.3128534275523,
          1620.4640179661417,
          1912.6630654984033,
          1937.4786136378018,
          1572.7887453567719,
          934.4880815984889,
          532.8022246391763,
          267.81033163129376
        ],
        "accelerations": [
          0.0,
          0.0,
          0.0,
          0.0,
          0.0,
          0.0,
          0.0,
          0.0,
          0.0,
          0.0,
          0.0,
          0.0,
          0.0,
          0.0,
          0.0,
          0.0,
          0.0,
          0.0,
          0.0,
          0.0,
          0.0,
          0.0,
          0.0,
          0.0,
          0.0,
          0.0,
          0.0,
          0.0,
          0.0,
          0.0,
          0.0,
          0.0,
          0.0,
          0.0,
          0.0,
          0.0,
          0.0,
          0.0,
          0.0,
          0.0,
          2392.3444976076535,
          5219.5849945320115,
          13876.645293670075,
          25598.800227953543,
          39893.94488039189,
          32367.403072374003,
          9323.958696225294,
          -9090.11525079864,
          -30654.618192159654,
          -32007.628253980336,
          -19608.16911668219,
          -15587.758412228372
        ],
        "timestamps": [
          12.0,
          22.0,
          34.0,
          44.0,
          55.0,
          66.0,
          77.0,
          88.0,
          99.0,
          110.0,
          121.0,
          132.0,
          144.0,
          155.0,
          166.0,
          177.0,
          188.0,
          199.0,
          210.0,
          221.0,
          232.0,
          243.0,
          253.0,
          264.0,
          275.0,
          286.0,
          297.0,
          308.0,
          319.0,
          331.0,
          342.0,
          353.0,
          364.0,
          375.0,
          386.0,
          397.0,
          408.0,
          419.0,
          430.0,
          441.0,
          452.0,
          463.0,
          482.0,
          495.0,
          512.0,
          526.0,
          543.0,
          560.0,
          578.0,
          594.0,
          611.0,
          628.0
        ]
      },
      "is_valid": false,
      "quality_score": 0.0,
      "issues": [
        "Movement time too fast: 165.0ms"
      ]
    },
    {
      "trial_number": 8,
      "metrics": {
        "reaction_time": 411.0,
        "movement_time": 1976.0,
        "peak_velocity": 1051.1876393071393,
        "time_to_peak_velocity": 494.0,
        "path_length": 146.2512873896236,
        "directness_ratio": 0.9513040098380113,
        "movement_units": 3,
        "corrective_movements": 8,
        "mean_velocity": 42.125825103555414,
        "velocity_peaks": [
          39,
          48,
          51
        ],
        "velocities": [
          14.705882352941176,
          29.41176470588235,
          14.705882352941176,
          0.0,
          0.0,
          0.0,
          0.0,
          0.0,
          0.0,
          0.0,
          0.0,
          0.0,
          0.0,
          0.0,
          0.0,
          0.0,
          0.0,
          0.0,
          0.0,
          0.0,
          0.0,
          0.0,
          0.0,
          0.0,
          0.0,
          0.0,
          0.0,
          0.0,
          0.0,
          0.0,
          0.0,
          0.0,
          0.0,
          0.0,
          0.0,
          64.28571428571428,
          278.57142857142856,
          614.7178667258084,
          949.3795107324195,
          1051.1876393071393,
          897.7066033892395,
          734.9998581321635,
          560.8552360683393,
          326.1011120753072,
          194.85294117647058,
          247.71823570379127,
          317.0997894313717,
          324.90467584373096,
          341.08499461625496,
          310.8786427787115,
          274.6523473493652,
          289.3802686470164,
          256.2067432467405,
          152.191463435188,
          82.75885161796197,
          73.60593853004157,
          51.508851617961966,
          14.705882352941176,
          0.0,
          0.0,
          0.0,
          0.0,
          0.0,
          0.0,
          0.0,
          14.705882352941176,
          46.07843137254902,
          48.03921568627451,
          16.666666666666668,
          0.0,
          0.0,
          0.0,
          0.0,
          0.0,
          0.0,
          0.0,
          0.0,
          0.0,
          0.0,
          0.0,
          0.0,
          0.0,
          0.0,
          0.0,
          0.0,
          0.0,
          0.0,
          0.0,
          0.0,
          0.0,
          0.0,
          0.0,
          0.0,
          0.0,
          0.0,
          0.0,
          0.0,
          0.0,
          0.0,
          0.0,
          0.0,
          0.0,
          0.0,
          0.0,
          0.0,
          0.0,
          0.0,
          0.0,
          0.0,
          0.0,
          0.0,
          0.0,
          0.0,
          0.0,
          0.0,
          0.0,
          0.0,
          0.0,
          0.0,
          0.0,
          0.0,
          0.0,
          0.0,
          0.0,
          0.0,
          0.0,
          0.0,
          0.0,
          0.0,
          0.0,
          0.0,
          0.0,
          0.0,
          0.0,
          0.0,
          0.0,
          0.0,
          0.0,
          0.0,
          0.0,
          0.0,
          0.0,
          0.0,
          0.0,
          0.0,
          0.0,
          0.0,
          0.0,
          0.0,
          0.0,
          0.0,
          0.0,
          0.0,
          0.0,
          0.0,
          0.0,
          0.0,
          0.0,
          0.0,
          0.0,
          0.0,
          0.0,
          0.0,
          0.0,
          0.0,
          0.0,
          0.0,
          0.0,
          0.0,
          0.0,
          0.0,
          0.0,
          0.0,
          0.0,
          0.0,
          0.0,
          0.0,
          0.0,
          0.0,
          0.0,
          0.0,
          0.0,
          0.0,
          0.0,
          0.0,
          0.0,
          0.0,
          0.0,
          0.0,
          0.0,
          0.0,
          0.0,
          0.0,
          0.0,
          0.0,
          0.0,
          0.0,
          0.0,
          0.0,
          0.0,
          0.0,
          0.0,
          0.0,
          0.0
        ],
        "accelerations": [
          865.0519031141868,
          -54.06574394463695,
          -1166.6914240443648,
          -668.4491978609623,
          0.0,
          0.0,
          0.0,
          0.0,
          0.0,
          0.0,
          0.0,
          0.0,
          0.0,
          0.0,
          0.0,
          0.0,
          0.0,
          0.0,
          0.0,
          0.0,
          0.0,
          0.0,
          0.0,
          0.0,
          0.0,
          0.0,
          0.0,
          0.0,
          0.0,
          0.0,
          0.0,
          0.0,
          0.0,
          0.0,
          2782.931354359944,
          5910.704202629685,
          17523.568474415268,
          21132.989035306782,
          12822.63035024362,
          -1614.7783544743725,
          -9582.101845597637,
          -9907.393156497055,
          -12026.433707554586,
          -10921.098165327548,
          -2718.0487957631585,
          3741.6203683450085,
          2456.4750388630473,
          743.5564891737286,
          -254.33035009327523,
          -1988.3727317728044,
          -746.3292699289541,
          -542.5177677242473,
          -4295.102313726524,
          -5329.229555564671,
          -2274.9488087810664,
          -924.916012912362,
          -2541.979685628844,
          -2363.5102559341803,
          -831.2020460358049,
          0.0,
          0.0,
          0.0,
          0.0,
          0.0,
          557.0409982174683,
          1482.0228294157407,
          934.4963475586304,
          -881.2987560615636,
          -1485.4426619132503,
          -363.1082062454647,
          0.0,
          0.0,
          0.0,
          0.0,
          0.0,
          0.0,
          0.0,
          0.0,
          0.0,
          0.0,
          0.0,
          0.0,
          0.0,
          0.0,
          0.0,
          0.0,
          0.0,
          0.0,
          0.0,
          0.0,
          0.0,
          0.0,
          0.0,
          0.0,
          0.0,
          0.0,
          0.0,
          0.0,
          0.0,
          0.0,
          0.0,
          0.0,
          0.0,
          0.0,
          0.0,
          0.0,
          0.0,
          0.0,
          0.0,
          0.0,
          0.0,
          0.0,
          0.0,
          0.0,
          0.0,
          0.0,
          0.0,
          0.0,
          0.0,
          0.0,
          0.0,
          0.0,
          0.0,
          0.0,
          0.0,
          0.0,
          0.0,
          0.0,
          0.0,
          0.0,
          0.0,
          0.0,
          0.0,
          0.0,
          0.0,
          0.0,
          0.0,
          0.0,
          0.0,
          0.0,
          0.0,
          0.0,
          0.0,
          0.0,
          0.0,
          0.0,
          0.0,
          0.0,
          0.0,
          0.0,
          0.0,
          0.0,
          0.0,
          0.0,
          0.0,
          0.0,
          0.0,
          0.0,
          0.0,
          0.0,
          0.0,
          0.0,
          0.0,
          0.0,
          0.0,
          0.0,
          0.0,
          0.0,
          0.0,
          0.0,
          0.0,
          0.0,
          0.0,
          0.0,
          0.0,
          0.0,
          0.0,
          0.0,
          0.0,
          0.0,
          0.0,
          0.0,
          0.0,
          0.0,
          0.0,
          0.0,
          0.0,
          0.0,
          0.0,
          0.0,
          0.0,
          0.0,
          0.0,
          0.0,
          0.0,
          0.0,
          0.0,
          0.0,
          0.0,
          0.0,
          0.0,
          0.0,
          0.0,
          0.0
        ],
        "timestamps": [
          11.0,
          28.0,
          44.0,
          55.0,
          66.0,
          83.0,
          94.0,
          104.0,
          115.0,
          126.0,
          137.0,
          149.0,
          159.0,
          173.0,
          184.0,
          195.0,
          206.0,
          217.0,
          228.0,
          238.0,
          249.0,
          260.0,
          271.0,
          282.0,
          293.0,
          304.0,
          315.0,
          325.0,
          336.0,
          348.0,
          358.0,
          369.0,
          380.0,
          390.0,
          400.0,
          411.0,
          446.0,
          461.0,
          478.0,
          494.0,
          510.0,
          527.0,
          544.0,
          561.0,
          577.0,
          594.0,
          610.0,
          627.0,
          643.0,
          661.0,
          677.0,
          694.0,
          711.0,
          727.0,
          744.0,
          760.0,
          777.0,
          788.0,
          798.0,
          811.0,
          821.0,
          835.0,
          846.0,
          857.0,
          867.0,
          879.0,
          896.0,
          911.0,
          927.0,
          944.0,
          954.0,
          965.0,
          981.0,
          992.0,
          1003.0,
          1013.0,
          1024.0,
          1034.0,
          1044.0,
          1055.0,
          1065.0,
          1076.0,
          1086.0,
          1097.0,
          1108.0,
          1118.0,
          1129.0,
          1140.0,
          1150.0,
          1161.0,
          1171.0,
          1182.0,
          1193.0,
          1203.0,
          1214.0,
          1225.0,
          1235.0,
          1246.0,
          1257.0,
          1268.0,
          1279.0,
          1290.0,
          1300.0,
          1311.0,
          1322.0,
          1332.0,
          1343.0,
          1354.0,
          1364.0,
          1375.0,
          1385.0,
          1396.0,
          1407.0,
          1417.0,
          1428.0,
          1439.0,
          1449.0,
          1460.0,
          1470.0,
          1482.0,
          1493.0,
          1503.0,
          1514.0,
          1525.0,
          1536.0,
          1547.0,
          1557.0,
          1568.0,
          1579.0,
          1590.0,
          1600.0,
          1611.0,
          1622.0,
          1632.0,
          1643.0,
          1654.0,
          1665.0,
          1676.0,
          1687.0,
          1698.0,
          1709.0,
          1720.0,
          1730.0,
          1742.0,
          1752.0,
          1763.0,
          1774.0,
          1785.0,
          1796.0,
          1807.0,
          1817.0,
          1827.0,
          1837.0,
          1848.0,
          1860.0,
          1870.0,
          1881.0,
          1892.0,
          1903.0,
          1914.0,
          1925.0,
          1935.0,
          1946.0,
          1957.0,
          1968.0,
          1979.0,
          1990.0,
          2000.0,
          2011.0,
          2022.0,
          2032.0,
          2043.0,
          2053.0,
          2064.0,
          2075.0,
          2086.0,
          2097.0,
          2108.0,
          2118.0,
          2129.0,
          2140.0,
          2150.0,
          2161.0,
          2172.0,
          2182.0,
          2193.0,
          2204.0,
          2215.0,
          2225.0,
          2236.0,
          2247.0,
          2258.0,
          2268.0,
          2279.0,
          2290.0,
          2301.0,
          2312.0,
          2323.0,
          2333.0,
          2344.0,
          2355.0,
          2366.0,
          2377.0,
          2387.0
        ]
      },
      "is_valid": true,
      "quality_score": 0.7126823529411764,
      "issues": []
    }
  ]
}